GX,GY,GZ,AX,AY,AZ,MX,MY,MZ,TS
210.25085,462.11243,256.86646,0.013916016,0.15795898,-0.11254883,0.14135742,0.14172363,-0.28637695,154
238.86108,499.13025,247.49756,-0.053710938,0.060791016,-0.041748047,0.14025879,0.15307617,-0.28637695,155
320.29724,499.9237,229.98047,-0.103515625,-0.041015625,0.018798828,0.14025879,0.15307617,-0.28637695,156
378.31116,499.9237,184.47876,-0.10546875,-0.16186523,0.16455078,0.12780762,0.16845703,-0.30871582,157
419.0979,499.9237,131.62231,-0.11669922,-0.25561523,0.39916992,0.12780762,0.16845703,-0.30871582,158
436.08093,499.9237,104.56848,-0.08105469,-0.32421875,0.6665039,0.12780762,0.16845703,-0.30871582,159
465.8966,499.9237,94.84863,-0.07128906,-0.3515625,0.97753906,0.11022949,0.19482422,-0.33544922,160
483.03223,499.9237,50.964355,-0.09765625,-0.4140625,1.2314453,0.11022949,0.19482422,-0.33544922,161
446.3806,498.87085,-76.934814,-0.16333008,-0.4777832,1.4211426,0.07873535,0.22741699,-0.35632324,162
262.75635,499.9237,-203.36914,-0.123535156,-0.51904297,1.8085938,0.07873535,0.22741699,-0.35632324,163
70.15991,415.4663,-313.0188,0.23046875,-0.513916,1.9331055,0.07873535,0.22741699,-0.35632324,164
-130.82886,3.692627,-451.2329,0.4580078,-0.42089844,2.0109863,0.046875,0.2515869,-0.35961914,165
-255.67627,401.33667,-370.25452,0.5998535,-0.4333496,2.2163086,0.046875,0.2515869,-0.35961914,166
-276.90125,272.30835,-365.66162,0.76708984,-0.2590332,2.038086,0.02746582,0.2508545,-0.34753418,167
-237.42676,323.92883,-327.0569,0.80371094,-0.061279297,1.7937012,0.02746582,0.2508545,-0.34753418,168
-226.94397,415.67993,-288.25378,0.73461914,0.16577148,1.588623,0.02746582,0.2508545,-0.34753418,169
-264.8468,340.05737,-262.80212,0.7661133,0.23364258,1.5070801,-0.000732422,0.25195312,-0.33691406,170
-317.26074,189.51416,-233.26111,0.8725586,0.31030273,1.3835449,-0.000732422,0.25195312,-0.33691406,171
-345.71838,15.075684,-208.25195,0.9897461,0.40478516,1.2131348,-0.017944336,0.24353027,-0.32006836,172
-324.76807,-118.98804,-187.6831,1.0612793,0.23144531,0.92163086,-0.017944336,0.24353027,-0.32006836,173
-226.91345,-301.40686,-148.05603,1.1157227,0.31518555,0.69091797,-0.017944336,0.24353027,-0.32006836,174
-166.30554,-236.23657,-133.71277,1.0307617,0.55737305,0.6611328,-0.015380859,0.24060059,-0.31201172,175
-159.04236,-190.30762,-131.79016,1.0639648,0.7758789,0.6040039,-0.015380859,0.24060059,-0.31201172,176
-73.31848,-109.61914,-102.32544,1.0861816,0.91308594,0.49609375,-0.012817383,0.23254395,-0.3043213,177
-20.019531,-53.28369,-84.7168,1.1162109,1.0354004,0.45507812,-0.012817383,0.23254395,-0.3043213,178
7.9956055,-117.767334,-107.681274,1.1540527,1.1191406,0.40771484,-0.012817383,0.23254395,-0.3043213,179
137.8479,-235.91614,-143.38684,1.1750488,1.2929688,0.31860352,-0.012451172,0.23364258,-0.30578613,180
389.12964,-291.214,-119.15588,1.1774902,1.5566406,0.2956543,-0.012451172,0.23364258,-0.30578613,181
469.80286,-421.18835,-103.98865,1.2167969,1.5356445,0.24023438,-0.002929688,0.24243164,-0.32043457,182
430.08423,-446.59424,-64.54468,1.0834961,1.1940918,0.11645508,-0.002929688,0.24243164,-0.32043457,183
362.27417,-318.161,-12.512207,0.88305664,0.8195801,0.014892578,-0.002929688,0.24243164,-0.32043457,184
297.56165,-271.19446,20.141602,0.77734375,0.6801758,0.028076172,0.013549805,0.2548828,-0.33581543,185
251.43433,-273.7732,27.770996,0.6928711,0.6977539,0.09008789,0.013549805,0.2548828,-0.33581543,186
256.94275,-270.41626,56.381226,0.64038086,0.6687012,0.079833984,0.026733398,0.2640381,-0.34753418,187
283.49304,-254.97437,74.70703,0.5371094,0.60839844,0.013183594,0.026733398,0.2640381,-0.34753418,188
287.41455,-221.64917,114.730835,0.43603516,0.5319824,-0.021240234,0.026733398,0.2640381,-0.34753418,189
245.224,-137.22229,181.22864,0.39526367,0.40625,-0.048828125,0.038085938,0.27722168,-0.36071777,190
216.78162,-53.466797,229.98047,0.37426758,0.2861328,-0.061035156,0.038085938,0.27722168,-0.36071777,191
190.7196,29.022217,269.66858,0.23339844,0.1730957,-0.06713867,0.038085938,0.28564453,-0.36364746,192
159.74426,114.868164,339.00452,0.17919922,0.02368164,-0.06762695,0.042114258,0.28564453,-0.36364746,193
154.98352,188.67493,361.9995,0.1665039,-0.1003418,-0.035888672,0.042114258,0.28564453,-0.36364746,194
173.00415,216.07971,371.84143,0.16210938,-0.20996094,0.03125,0.038085938,0.29736328,-0.36401367,195
221.37451,213.04321,350.3723,0.18554688,-0.30908203,0.0859375,0.038085938,0.29736328,-0.36401367,196
242.69104,185.66895,308.41064,0.18164062,-0.42504883,0.14746094,0.038085938,0.29736328,-0.36767578,197
189.74304,175.23193,248.22998,0.20288086,-0.62280273,0.22753906,0.026000977,0.30871582,-0.36767578,198
105.392456,228.08838,191.51306,0.2697754,-0.84521484,0.32714844,0.026000977,0.30871582,-0.36767578,199
-14.007568,220.07751,127.22778,0.30859375,-1.0063477,0.5727539,0.017578125,0.32043457,-0.36291504,200
-85.83069,228.8208,70.877075,0.34765625,-0.970459,0.80908203,0.017578125,0.32043457,-0.36291504,201
-86.502075,313.81226,15.441895,0.4489746,-0.96313477,1.1853027,0.001464844,0.3215332,-0.36328125,202
-67.76428,265.71655,-12.22229,0.5966797,-1.001709,1.4418945,0.001464844,0.3215332,-0.36328125,203
-54.656982,210.92224,-74.70703,0.87719727,-1.0407715,1.6315918,0.001464844,0.3215332,-0.36328125,204
-26.70288,120.7428,-182.61719,1.0983887,-0.9987793,1.7817383,-0.013916016,0.3248291,-0.3515625,205
-124.34387,126.60217,-189.08691,1.1181641,-0.9609375,2.0683594,-0.013916016,0.3248291,-0.3515625,206
-111.083984,38.16223,-218.75,1.0344238,-0.33984375,1.9887695,-0.013916016,0.3248291,-0.3515625,207
-49.804688,-44.47937,-228.91235,1.0373535,-0.041259766,1.9655762,-0.01574707,0.32922363,-0.34606934,208
-131.36292,25.787354,-138.6261,1.1625977,0.13916016,2.0524902,-0.01574707,0.32922363,-0.34606934,209
-178.6499,-277.5879,-111.31287,1.2226562,0.3791504,2.1003418,-0.017211914,0.32995605,-0.33947754,210
-224.59412,-363.28125,-77.85034,1.2287598,0.50512695,2.0786133,-0.017211914,0.32995605,-0.33947754,211
-244.33899,-355.9265,-41.70227,1.2434082,0.4736328,1.9248047,-0.017211914,0.32995605,-0.33947754,212
-316.2079,-339.32495,9.338379,1.2089844,0.45458984,1.8364258,0.000732422,0.31420898,-0.34643555,213
-387.19177,-394.0277,49.087524,1.1328125,0.4494629,1.6904297,0.000732422,0.31420898,-0.34643555,214
-382.1106,-437.9425,69.625854,1.0563965,0.42529297,1.5063477,0.017211914,0.29333496,-0.34899902,215
-302.26135,-465.02686,77.3468,0.9707031,0.39794922,1.2727051,0.017211914,0.29333496,-0.34899902,216
-218.96362,-482.193,70.98389,0.892334,0.38085938,0.99438477,0.017211914,0.29333496,-0.34899902,217
-190.88745,-482.69653,61.050415,0.79052734,0.3466797,0.7824707,0.03881836,0.26623535,-0.34716797,218
-204.9408,-500,49.102783,0.6772461,0.30444336,0.5280762,0.03881836,0.26623535,-0.34716797,219
-211.86829,-463.91296,52.56653,0.5415039,0.22729492,0.30664062,0.06518555,0.24389648,-0.3449707,220
-221.54236,-341.3086,51.437378,0.39990234,0.19677734,0.103027344,0.06518555,0.24389648,-0.3449707,221
-263.38196,-210.69336,42.46521,0.3059082,0.22631836,-0.15722656,0.06518555,0.24389648,-0.3449707,222
-292.83142,-99.42627,42.541504,0.21704102,0.32373047,-0.30078125,0.08532715,0.23034668,-0.33728027,223
-309.92126,-16.204834,70.495605,0.1550293,0.40063477,-0.3684082,0.08532715,0.23034668,-0.33728027,224
-310.0586,34.40857,126.00708,0.08154297,0.44799805,-0.41577148,0.08898926,0.21166992,-0.3310547,225
-312.7594,62.789917,164.18457,0.028320312,0.49072266,-0.4050293,0.08898926,0.21166992,-0.3310547,226
-329.04053,91.36963,185.02808,0.016601562,0.50683594,-0.40600586,0.08898926,0.21166992,-0.3310547,227
-324.47815,143.9972,214.70642,0.015625,0.47875977,-0.38232422,0.09082031,0.1973877,-0.32409668,228
-328.9032,191.45203,230.22461,0.021240234,0.41357422,-0.32055664,0.09082031,0.1973877,-0.32409668,229
-124.02344,311.2793,151.16882,0.1274414,0.08691406,0.16674805,0.0904541,0.18603516,-0.3178711,232
106.399536,137.22229,86.04431,0.23291016,0.052001953,1.1584473,0.06591797,0.18164062,-0.31933594,235
121.32263,-222.73254,-72.509766,0.607666,0.21044922,1.421875,0.06591797,0.18164062,-0.31933594,236
132.0343,-159.34753,-144.6991,0.69750977,0.27294922,1.5654297,0.06591797,0.18164062,-0.31933594,237
-14.160156,-191.13159,-68.32886,0.5522461,0.5559082,1.5874023,0.06774902,0.18933105,-0.321167,238
-44.555664,-94.314575,-63.40027,0.34716797,0.8449707,1.6508789,0.06774902,0.18933105,-0.321167,239
-14.083862,14.801025,2.1514893,0.29003906,0.90600586,1.6335449,0.0703125,0.19226074,-0.31970215,240
-11.657715,2.456665,55.93872,0.27807617,0.9746094,1.4509277,0.0703125,0.19226074,-0.31970215,241
11.688232,-64.77356,59.9823,0.21826172,0.8937988,1.3083496,0.0703125,0.19226074,-0.31970215,242
47.805786,-42.72461,58.73108,0.17456055,0.79174805,1.1635742,0.071777344,0.19262695,-0.31933594,243
9.246826,-81.77185,6.6833496,0.1496582,0.74902344,1.0153809,0.071777344,0.19262695,-0.31933594,244
-7.7667236,-95.55054,-10.498047,0.1159668,0.7451172,0.9328613,0.071777344,0.19335938,-0.31677246,245
-10.83374,-137.4054,3.616333,0.10058594,0.77075195,0.85009766,0.07727051,0.19335938,-0.31677246,246
-17.37976,-141.75415,30.9906,0.0703125,0.81591797,0.79711914,0.07727051,0.19335938,-0.31677246,247
-67.337036,-117.90466,28.7323,0.071777344,0.82470703,0.70458984,0.08203125,0.19152832,-0.31420898,248
-72.81494,-126.80054,27.130127,0.111083984,0.8161621,0.6760254,0.08203125,0.19152832,-0.31420898,249
-28.10669,-134.91821,49.49951,0.11352539,0.8173828,0.69091797,0.0871582,0.19152832,-0.3116455,250
46.37146,-164.87122,77.3468,0.12426758,0.82666016,0.7023926,0.0871582,0.19152832,-0.3116455,251
118.42346,-164.79492,77.697754,0.14355469,0.77734375,0.68188477,0.0871582,0.19152832,-0.3116455,252
181.99158,-117.15698,63.049316,0.114746094,0.69189453,0.6516113,0.09777832,0.19482422,-0.3079834,253
177.70386,-84.67102,46.23413,0.095214844,0.5852051,0.6147461,0.09777832,0.19482422,-0.3079834,254
126.5564,-66.986084,34.683228,0.08911133,0.50805664,0.6003418,0.09777832,0.19482422,-0.3079834,255
63.705444,-45.425415,24.917603,0.08081055,0.46020508,0.6220703,0.10253906,0.20141602,-0.31713867,0
43.48755,-34.072876,27.893066,0.05834961,0.45703125,0.6862793,0.10253906,0.20141602,-0.31713867,1
48.034668,-41.09192,21.118164,0.06762695,0.4699707,0.76000977,0.103637695,0.20471191,-0.31860352,2
43.47229,-69.503784,18.112183,0.09790039,0.4584961,0.7832031,0.103637695,0.20471191,-0.31860352,3
39.916992,-113.12866,8.300781,0.122802734,0.4716797,0.78125,0.103637695,0.20471191,-0.31860352,4
32.836914,-157.48596,-1.9378662,0.12597656,0.513916,0.75390625,0.107299805,0.2076416,-0.3182373,5
40.023804,-172.45483,-4.760742,0.104003906,0.5776367,0.704834,0.107299805,0.2076416,-0.3182373,6
48.14148,-140.4419,0.44250488,0.076171875,0.64331055,0.65771484,0.11315918,0.20690918,-0.3112793,7
60.943604,-50.15564,7.8430176,0.033935547,0.7368164,0.61572266,0.11315918,0.20690918,-0.3112793,8
109.00879,51.14746,24.337769,0.005126953,0.7878418,0.58447266,0.11315918,0.20690918,-0.3112793,9
135.9253,134.75037,34.439087,0.0078125,0.8239746,0.5769043,0.119018555,0.20837402,-0.31347656,10
157.68433,174.1333,45.288086,0.041503906,0.8171387,0.59472656,0.119018555,0.20837402,-0.31347656,11
177.38342,159.07288,59.921265,0.08642578,0.7770996,0.6142578,0.11315918,0.21496582,-0.31640625,12
168.74695,89.06555,91.36963,0.13378906,0.68603516,0.65625,0.11315918,0.21496582,-0.31640625,13
182.14417,51.834106,109.83276,0.09423828,0.6315918,0.68066406,0.11315918,0.21496582,-0.31640625,14
159.40857,29.953003,122.69592,0.052734375,0.59936523,0.6833496,0.10913086,0.22521973,-0.3244629,15
154.41895,39.749146,119.36951,0.018798828,0.5529785,0.6809082,0.10913086,0.22521973,-0.3244629,16
169.60144,82.36694,96.13037,0.008056641,0.5031738,0.6501465,0.111694336,0.23327637,-0.33215332,17
199.66125,101.135254,80.459595,0.013916016,0.45751953,0.6257324,0.111694336,0.23327637,-0.33215332,18
221.14563,73.6084,90.927124,0.033447266,0.41308594,0.6130371,0.111694336,0.23327637,-0.33215332,19
230.34668,36.392212,96.11511,0.03515625,0.3605957,0.607666,0.111694336,0.23986816,-0.34020996,20
239.63928,61.538696,86.07483,0.025634766,0.31030273,0.5847168,0.111694336,0.23986816,-0.34020996,21
266.87622,112.4115,73.898315,0.002685547,0.26660156,0.5661621,0.11206055,0.25634766,-0.34570312,22
280.24292,157.63855,63.201904,0.015136719,0.22509766,0.579834,0.11206055,0.25634766,-0.34570312,23
241.51611,180.3894,71.68579,0.064697266,0.1862793,0.7324219,0.11206055,0.25634766,-0.34570312,24
197.8302,158.66089,73.48633,0.0703125,0.18554688,0.86450195,0.10510254,0.26879883,-0.35046387,25
168.15186,135.02502,69.54956,0.107421875,0.03881836,0.92700195,0.10510254,0.26879883,-0.35046387,26
164.15405,141.17432,63.812256,0.13256836,-0.04711914,0.93896484,0.09814453,0.28234863,-0.35925293,27
171.46301,137.00867,63.61389,0.15429688,-0.07324219,0.95996094,0.09814453,0.28234863,-0.35925293,28
170.16602,90.13367,49.835205,0.15771484,-0.052490234,1.0068359,0.09814453,0.28234863,-0.35925293,29
186.85913,65.35339,35.03418,0.14624023,-0.01977539,1.0085449,0.092285156,0.29406738,-0.3651123,30
182.41882,62.39319,31.738281,0.14135742,-0.001708984,0.9938965,0.092285156,0.29406738,-0.3651123,31
147.44568,64.84985,29.830933,0.14355469,0.009765625,0.9926758,0.08935547,0.3079834,-0.36071777,32
129.36401,54.992676,26.931763,0.15136719,0.021972656,0.9970703,0.08935547,0.3079834,-0.36071777,33
91.09497,105.25513,24.719238,0.12597656,0.004150391,1.0478516,0.08935547,0.3079834,-0.36071777,34
29.846191,173.11096,14.724731,0.099365234,-0.045166016,1.0986328,0.084228516,0.31347656,-0.36108398,35
-23.68164,239.97498,-1.3427734,0.1003418,-0.060546875,1.1210938,0.084228516,0.31347656,-0.36108398,36
-66.7572,311.40137,-11.642456,0.111328125,-0.055908203,1.1147461,0.072509766,0.31347656,-0.36328125,37
-86.34949,379.73022,-24.32251,0.14086914,-0.043945312,1.1025391,0.072509766,0.31347656,-0.36328125,38
-85.9375,398.23914,-42.678833,0.1940918,-0.007080078,1.1081543,0.072509766,0.31347656,-0.36328125,39
-52.81067,381.94275,-46.676636,0.28344727,0.03540039,1.1333008,0.047973633,0.30981445,-0.35998535,40
4.470825,159.48486,-43.19763,0.44995117,0.08618164,1.2438965,0.047973633,0.30981445,-0.35998535,41
15.563965,27.435303,-37.963867,0.5102539,0.0871582,1.2102051,0.036621094,0.30871582,-0.36291504,42
-13.259888,-24.002075,-35.17151,0.4724121,0.056640625,1.1276855,0.036621094,0.30871582,-0.36291504,43
-50.460815,-105.10254,-52.246094,0.5024414,0.032226562,1.1315918,0.036621094,0.30871582,-0.36291504,44
-68.77136,-235.10742,-73.150635,0.51416016,0.034423828,1.1401367,0.036987305,0.30908203,-0.35742188,45
-50.26245,-265.42664,-92.86499,0.46655273,0.032226562,1.1254883,0.036987305,0.30908203,-0.35742188,46
-53.009033,-267.33398,-97.94617,0.39331055,0.06738281,1.045166,0.036987305,0.30908203,-0.3585205,47
-14.6484375,-183.44116,-74.24927,0.28393555,0.09765625,0.9211426,0.0501709,0.3043213,-0.3585205,48
-73.776245,-119.35425,-45.08972,0.2668457,0.118896484,0.9284668,0.0501709,0.3043213,-0.3585205,49
-124.191284,-87.509155,-30.273438,0.24511719,0.119384766,0.9916992,0.056030273,0.30065918,-0.35412598,50
-173.67554,-97.36633,-19.79065,0.28173828,0.0925293,0.97753906,0.056030273,0.30065918,-0.35412598,51
-179.4281,-49.743652,-24.215698,0.23095703,0.08569336,0.9445801,0.056030273,0.30065918,-0.35412598,52
-209.91516,21.347046,-36.04126,0.20214844,0.11621094,0.91503906,0.06225586,0.288208,-0.35302734,53
-226.91345,45.150757,-39.749146,0.2133789,0.15161133,0.9074707,0.06225586,0.288208,-0.35302734,54
-260.89478,43.121338,-33.081055,0.27807617,0.19360352,0.8823242,0.056396484,0.2775879,-0.35595703,55
-283.12683,183.95996,-12.390137,0.29223633,0.26831055,0.71899414,0.056396484,0.2775879,-0.35595703,56
-209.68628,157.11975,6.92749,0.33520508,0.32763672,0.80566406,0.056396484,0.2611084,-0.34753418,57
-167.98401,143.79883,17.959595,0.37841797,0.37158203,0.76464844,0.048706055,0.2611084,-0.34753418,58
-131.30188,195.40405,26.138306,0.38183594,0.40673828,0.7631836,0.048706055,0.2611084,-0.34753418,59
-67.7948,276.6571,12.954712,0.37768555,0.41064453,0.7416992,0.039916992,0.25268555,-0.34716797,60
-74.17297,288.9557,-0.44250488,0.32885742,0.37573242,0.73779297,0.039916992,0.25268555,-0.34716797,61
-81.77185,257.5531,-2.7618408,0.35180664,0.34033203,0.73217773,0.039916992,0.25268555,-0.34716797,62
-99.51782,187.14905,-8.7890625,0.3400879,0.34838867,0.7590332,0.024902344,0.24865723,-0.3416748,63
-132.2937,172.34802,-10.147095,0.36328125,0.38256836,0.7885742,0.024902344,0.24865723,-0.3416748,64
-161.5448,163.81836,6.7749023,0.41503906,0.41479492,0.81347656,0.016113281,0.24353027,-0.33618164,65
-143.96667,189.62097,15.869141,0.42382812,0.43188477,0.78881836,0.016113281,0.24353027,-0.33618164,66
-118.53027,258.4839,19.561768,0.41674805,0.41430664,0.72094727,0.016113281,0.24353027,-0.33618164,67
-79.452515,349.76196,22.872925,0.42285156,0.41308594,0.70703125,0.002563477,0.23730469,-0.32739258,68
-51.9104,414.59656,31.12793,0.45751953,0.4206543,0.7351074,0.002563477,0.23730469,-0.32739258,69
-37.368774,379.4098,44.052124,0.52490234,0.4116211,0.71899414,-0.01574707,0.23254395,-0.31896973,70
-27.98462,335.95276,59.555054,0.57421875,0.40551758,0.68725586,-0.01574707,0.23254395,-0.31896973,71
-24.887085,298.3246,70.44983,0.60546875,0.4177246,0.68725586,-0.01574707,0.23254395,-0.31896973,72
-29.510498,268.18848,81.54297,0.592041,0.42407227,0.57250977,-0.028930664,0.22814941,-0.31567383,73
-20.385742,212.46338,72.54028,0.5629883,0.5031738,0.5136719,-0.028930664,0.22814941,-0.31567383,74
21.392822,176.62048,47.195435,0.5319824,0.6237793,0.4555664,-0.04248047,0.2244873,-0.30908203,75
57.632446,194.21387,36.56006,0.5280762,0.67333984,0.41796875,-0.04248047,0.2244873,-0.30908203,76
85.60181,195.755,46.37146,0.5449219,0.6665039,0.40551758,-0.04248047,0.2244873,-0.30908203,77
99.090576,188.12561,43.73169,0.5473633,0.6645508,0.39135742,-0.049072266,0.22558594,-0.30285645,78
132.98035,184.61609,27.893066,0.5397949,0.68774414,0.36376953,-0.049072266,0.22558594,-0.30285645,79
178.3905,191.54358,7.797241,0.53686523,0.7277832,0.33032227,-0.052001953,0.22741699,-0.30322266,80
214.43176,203.15552,-1.1749268,0.5510254,0.7553711,0.3161621,-0.052001953,0.22741699,-0.30322266,81
241.72974,208.89282,5.630493,0.5732422,0.78027344,0.30810547,-0.052001953,0.22741699,-0.30322266,82
270.20264,215.49988,17.730713,0.5979004,0.82177734,0.2915039,-0.060424805,0.23693848,-0.3112793,83
293.7317,214.59961,33.676147,0.6320801,0.86206055,0.27612305,-0.060424805,0.23693848,-0.3112793,84
302.1698,211.28845,49.89624,0.66137695,0.85498047,0.27929688,-0.068115234,0.24389648,-0.31311035,85
296.63086,190.8722,69.503784,0.66674805,0.77905273,0.26586914,-0.068115234,0.24389648,-0.31311035,86
277.99988,174.88098,99.83826,0.71606445,0.69921875,0.2866211,-0.068115234,0.24389648,-0.31311035,87
261.68823,178.05481,127.73132,0.8027344,0.609375,0.34643555,-0.07470703,0.25561523,-0.31420898,88
261.64246,182.40356,144.08875,0.8745117,0.5559082,0.3894043,-0.07470703,0.25561523,-0.31420898,89
250.1831,176.07117,144.72961,0.90722656,0.50341797,0.4169922,-0.07946777,0.26293945,-0.31567383,90
264.35852,178.58887,141.37268,0.91967773,0.45141602,0.43164062,-0.07946777,0.26293945,-0.31567383,91
296.47827,176.7273,141.38794,0.91552734,0.40673828,0.4260254,-0.07946777,0.26293945,-0.31567383,92
303.6499,166.19873,154.4342,0.89331055,0.32470703,0.4182129,-0.08496094,0.27062988,-0.32226562,93
283.41675,152.03857,162.85706,0.8874512,0.22216797,0.42797852,-0.08496094,0.27062988,-0.32226562,94
272.8119,143.0664,163.19275,0.8901367,0.13134766,0.43969727,-0.001098633,0.2713623,-0.31677246,95
233.03223,169.0216,138.53455,0.9111328,0.056640625,0.42114258,-0.09484863,0.2713623,-0.31677246,96
224.10583,148.01025,126.297,0.9499512,0.03100586,0.47558594,-0.09484863,0.2713623,-0.31677246,97
204.83398,137.4054,139.5874,0.99072266,-0.010742188,0.5029297,-0.103271484,0.28198242,-0.32080078,98
151.2146,115.28015,165.19165,1.0029297,-0.08544922,0.50146484,-0.103271484,0.28198242,-0.32080078,99
101.66931,75.805664,176.43738,1.1418457,-0.17651367,0.6184082,-0.103271484,0.3746338,-0.3178711,100
55.05371,32.974243,176.04065,1.2004395,-0.2487793,0.6472168,-0.103637695,0.2808838,-0.3178711,101
11.291504,-2.319336,187.0575,1.2441406,-0.29638672,0.6591797,-0.103637695,0.2808838,-0.3178711,102
-6.454468,-29.907227,185.65369,1.25,-0.34936523,0.65356445,-0.10620117,0.27319336,-0.3145752,103
2.4414062,-66.90979,173.04993,1.2331543,-0.39331055,0.6477051,-0.10620117,0.27319336,-0.3145752,104
-16.540527,-93.96362,136.27625,1.2268066,-0.42578125,0.61743164,-0.103637695,0.26843262,-0.32043457,105
-54.04663,-109.191895,114.12048,1.2084961,-0.4699707,0.5913086,-0.103637695,0.26843262,-0.32043457,106
-102.56958,-122.86377,87.92114,1.1711426,-0.50878906,0.5583496,-0.103637695,0.26843262,-0.32043457,107
-144.22607,-130.76782,64.0564,1.1245117,-0.5222168,0.5205078,-0.09851074,0.26293945,-0.32043457,108
-193.34412,-128.87573,38.8031,1.0808105,-0.50146484,0.48095703,-0.09851074,0.26293945,-0.32043457,109
-232.86438,-127.42615,5.645752,1.0388184,-0.4724121,0.44140625,-0.09851074,0.26293945,-0.32043457,110
-262.03918,-128.25012,-29.785156,1.005127,-0.43701172,0.40234375,-0.08862305,0.24902344,-0.32336426,111
-292.05322,-134.90295,-60.775757,0.97265625,-0.38623047,0.36108398,-0.08862305,0.24902344,-0.32336426,112
-306.77795,-134.79614,-100.15869,0.9362793,-0.36547852,0.32763672,-0.08276367,0.24023438,-0.31420898,113
-309.73816,-131.71387,-143.7378,0.9050293,-0.20898438,0.2861328,-0.08276367,0.24023438,-0.31420898,114
-320.73975,-127.74658,-179.64172,0.89160156,-0.12207031,0.25170898,-0.08276367,0.24023438,-0.31420898,115
-335.66284,-125.91553,-206.45142,0.88793945,-0.04663086,0.22021484,-0.080200195,0.23327637,-0.3013916,116
-351.0437,-121.276855,-232.00989,0.89282227,0.034179688,0.18603516,-0.080200195,0.23327637,-0.3013916,117
-357.83386,-126.40381,-257.98035,0.89331055,0.16674805,0.14648438,-0.07763672,0.22631836,-0.28967285,118
-369.97986,-136.58142,-300.7202,0.90649414,0.39624023,0.076171875,-0.07763672,0.22631836,-0.28967285,120
-374.93896,-149.97864,-301.1322,0.90844727,0.5041504,0.05102539,-0.076171875,0.22814941,-0.26916504,121
-382.53784,-157.19604,-292.16003,0.9042969,0.626709,0.04248047,-0.076171875,0.22814941,-0.26916504,122
-386.48987,-157.04346,-276.42822,0.89575195,0.7648926,0.044433594,-0.0769043,0.23400879,-0.25634766,123
-371.68884,-154.54102,-260.00977,0.875,0.8930664,0.049560547,-0.0769043,0.23400879,-0.25634766,124
-345.21484,-143.49365,-240.49377,0.85009766,1.0390625,0.052001953,-0.0769043,0.23400879,-0.25634766,125
-314.14795,-130.8136,-218.27698,0.82788086,1.1345215,0.05126953,-0.07800293,0.23840332,-0.24572754,126
-287.0636,-123.38257,-190.03296,0.8063965,1.21875,0.05126953,-0.07800293,0.23840332,-0.24572754,127
-257.41577,-113.95264,-155.10559,0.78466797,1.3203125,0.06567383,-0.08276367,0.24279785,-0.2446289,128
-214.53857,-89.98108,-109.78699,0.7541504,1.4074707,0.09838867,-0.08276367,0.24279785,-0.2446289,129
-157.05872,-63.14087,-74.32556,0.71533203,1.5148926,0.14257812,-0.08276367,0.24279785,-0.2446289,130
-97.732544,-33.737183,-41.809082,0.6713867,1.5888672,0.16870117,-0.091918945,0.24536133,-0.24133301,131
-54.855347,-4.0130615,-1.8920898,0.6557617,1.5898438,0.20019531,-0.091918945,0.24536133,-0.24133301,132
-28.7323,23.147583,32.791138,0.6652832,1.5478516,0.23291016,-0.091918945,0.2409668,-0.24243164,133
-2.1209717,44.128418,74.89014,0.689209,1.5039062,0.26391602,-0.091918945,0.2409668,-0.24243164,134
16.647339,59.646606,109.42078,0.7363281,1.4455566,0.28442383,-0.091918945,0.2409668,-0.24243164,135
45.24231,70.28198,136.42883,0.8093262,1.4099121,0.30566406,-0.088256836,0.23583984,-0.24206543,136
80.703735,81.90918,158.18787,0.87646484,1.409668,0.3244629,-0.088256836,0.23583984,-0.24206543,137
131.13403,87.90588,175.99487,0.8762207,1.4226074,0.33911133,-0.084228516,0.22814941,-0.23986816,138
178.80249,79.956055,193.63403,1.0019531,1.4199219,0.3527832,-0.084228516,0.22814941,-0.23986816,139
221.22192,60.577393,211.0138,1.064209,1.3884277,0.36694336,-0.084228516,0.22814941,-0.23986816,140
249.75586,35.964966,228.21045,1.1220703,1.3110352,0.36645508,-0.080200195,0.21716309,-0.24023438,141
263.87024,16.906738,240.76843,1.157959,1.2111816,0.35131836,-0.080200195,0.21716309,-0.24023438,142
273.45276,3.5095215,249.77112,1.1501465,1.1362305,0.31396484,-0.07507324,0.20141602,-0.24938965,143
297.48535,-1.5106201,260.437,1.1025391,1.0644531,0.23583984,-0.07507324,0.20141602,-0.24938965,144
322.3114,-2.4108887,264.75525,1.0476074,1.0058594,0.16040039,-0.07507324,0.20141602,-0.24938965,145
353.34778,-9.811401,270.53833,0.9980469,0.9616699,0.10668945,-0.07470703,0.18237305,-0.26843262,146
363.6322,-35.186768,284.1797,0.98413086,0.87939453,0.072509766,-0.07470703,0.18237305,-0.26843262,147
365.6311,-56.396484,299.25537,0.99316406,0.7939453,0.07446289,-0.068481445,0.18310547,-0.3010254,148
344.9402,-71.92993,312.89673,1.0007324,0.6743164,0.083740234,-0.068481445,0.18310547,-0.3010254,149
307.43408,-84.9762,315.33813,0.9987793,0.5239258,0.09008789,-0.068481445,0.18310547,-0.3010254,150
277.26746,-89.50806,307.67822,0.9719238,0.41455078,0.08911133,-0.05859375,0.18859863,-0.32043457,151
252.04468,-93.24646,285.9192,0.9279785,0.3251953,0.088378906,-0.05859375,0.18859863,-0.32043457,152
231.76575,-93.53638,263.0005,0.8664551,0.2680664,0.08618164,-0.037353516,0.19592285,-0.33911133,153
217.28516,-95.88623,244.09485,0.80566406,0.22241211,0.08251953,-0.037353516,0.19592285,-0.33911133,154
203.09448,-95.12329,229.32434,0.7373047,0.17651367,0.07788086,-0.037353516,0.19592285,-0.33911133,155
175.20142,-96.588135,223.92273,0.6730957,0.13134766,0.07299805,-0.028198242,0.20031738,-0.34899902,156
127.34985,-90.33203,186.88965,0.48828125,0.07543945,0.14013672,-0.015014648,0.20397949,-0.35705566,159
114.53247,-67.04712,154.64783,0.39624023,0.043945312,0.14428711,-0.015014648,0.20397949,-0.35705566,160
106.68945,-40.374756,108.26111,0.31225586,0.02368164,0.15820312,0,0.20654297,-0.3647461,161
99.33472,-12.649536,63.99536,0.2319336,0.008789063,0.17504883,0,0.20654297,-0.3647461,162
98.968506,17.044067,37.872314,0.1496582,-0.002929688,0.19213867,0,0.20654297,-0.3647461,163
96.069336,51.879883,13.717651,0.09375,-0.000732422,0.21289062,0.004760742,0.20983887,-0.36914062,164
93.47534,82.70264,5.279541,0.052490234,0.012939453,0.23657227,0.004760742,0.20983887,-0.36914062,165
88.83667,109.58862,7.0495605,0.03540039,0.025878906,0.25756836,0.001831055,0.21972656,-0.3717041,166
89.35547,134.38416,18.798828,0.03881836,0.03173828,0.28271484,0.001831055,0.21972656,-0.3717041,167
89.43176,151.76392,33.721924,0.072753906,0.029052734,0.31762695,0.001831055,0.21972656,-0.3717041,168
86.120605,169.93713,37.475586,0.1184082,0.005859375,0.34960938,-0.012451172,0.22302246,-0.37902832,169
78.01819,190.94849,34.332275,0.17138672,-0.032470703,0.3774414,-0.012451172,0.22302246,-0.37902832,170
67.7948,212.55493,18.569946,0.22143555,-0.084228516,0.4025879,-0.019042969,0.22558594,-0.3746338,171
60.424805,227.87476,7.9193115,0.27807617,-0.15649414,0.43725586,-0.019042969,0.22558594,-0.3746338,172
58.10547,240.72266,-10.253906,0.35424805,-0.23095703,0.47753906,-0.019042969,0.22558594,-0.3746338,173
44.73877,252.48718,-31.25,0.43286133,-0.25024414,0.501709,-0.034423828,0.23254395,-0.3746338,174
30.685425,260.63538,-49.78943,0.52612305,-0.38623047,0.5227051,-0.034423828,0.23254395,-0.3746338,175
13.000488,262.71057,-67.91687,0.61987305,-0.46313477,0.54125977,-0.047607422,0.23620605,-0.36547852,176
-13.35144,259.61304,-88.31787,0.7258301,-0.5280762,0.50219727,-0.047607422,0.23620605,-0.36547852,177
-40.67993,254.34875,-110.305786,0.8581543,-0.58203125,0.5900879,-0.047607422,0.23620605,-0.36547852,178
-68.43567,245.51392,-133.92639,0.98095703,-0.61743164,0.6218262,-0.06262207,0.2376709,-0.36108398,179
-102.93579,237.80823,-160.29358,1.1088867,-0.62890625,0.6533203,-0.06262207,0.2376709,-0.36108398,180
-136.15417,231.81152,-182.724,1.2126465,-0.6323242,0.670166,-0.079833984,0.2409668,-0.35046387,181
-173.91968,224.07532,-202.28577,1.2568359,-0.62841797,0.67529297,-0.079833984,0.2409668,-0.35046387,182
-227.55432,207.94678,-214.29443,1.4094238,-0.6296387,0.671875,-0.079833984,0.2409668,-0.35046387,183
-285.73608,185.56213,-214.46228,1.4892578,-0.6142578,0.6623535,-0.09667969,0.24499512,-0.335083,184
-351.02844,146.98792,-212.92114,1.5615234,-0.56347656,0.6477051,-0.09667969,0.24499512,-0.335083,185
-409.8816,92.5293,-217.63611,1.6174316,-0.45874023,0.63793945,-0.107666016,0.2376709,-0.31640625,186
-460.1593,49.75891,-237.64038,1.6728516,-0.3232422,0.63549805,-0.107666016,0.2376709,-0.31640625,187
-486.9995,1.4648438,-279.99878,1.6943359,-0.15698242,0.61572266,-0.107666016,0.2376709,-0.31640625,188
-480.3772,-53.482056,-329.28467,1.6870117,0.04272461,0.5632324,-0.110961914,0.23803711,-0.29919434,189
-462.29553,-101.623535,-370.3766,1.6584473,0.21142578,0.55810547,-0.110961914,0.23803711,-0.29919434,190
-449.00513,-159.40857,-425.96436,1.6298828,0.32861328,0.41088867,-0.110961914,0.23693848,-0.2841797,191
-456.45142,-200.72937,-491.53137,1.6057129,0.5217285,0.3635254,-0.110961914,0.23693848,-0.2841797,192
-480.28564,-234.39026,-500,1.5756836,0.60839844,0.18530273,-0.110961914,0.23693848,-0.2841797,193
-488.25073,-264.05334,-500,1.550293,0.75024414,0.07739258,-0.107666016,0.24719238,-0.2746582,194
-460.0525,-281.96716,-500,1.532959,0.90478516,-0.033935547,-0.107666016,0.24719238,-0.2746582,195
-417.08374,-290.1306,-494.7815,1.5395508,1.0671387,-0.11425781,-0.107299805,0.2581787,-0.26879883,196
-360.79407,-287.90283,-422.6532,1.5488281,1.3300781,-0.15527344,-0.107299805,0.2581787,-0.26879883,197
-333.6792,-288.23853,-321.44165,1.5444336,1.4453125,-0.13208008,-0.107299805,0.2581787,-0.26879883,198
-300.7202,-284.25598,-222.3053,1.5217285,1.5786133,-0.107421875,-0.1003418,0.26220703,-0.2640381,199
-265.7776,-266.70837,-122.98584,1.5192871,1.5664062,-0.09082031,-0.1003418,0.26220703,-0.2640381,200
-238.69324,-248.06213,-32.730103,1.5439453,1.5349121,-0.05126953,-0.09411621,0.25964355,-0.2713623,201
-206.97021,-248.85559,33.187866,1.5751953,1.5087891,0.023925781,-0.09411621,0.25964355,-0.2713623,202
-186.55396,-249.72534,102.508545,1.6015625,1.4575195,0.119384766,-0.09411621,0.25964355,-0.2713623,203
-165.75623,-268.34106,158.18787,1.6101074,1.3762207,0.22998047,-0.088256836,0.2508545,-0.28125,204
-151.5503,-291.27502,191.25366,1.5754395,1.2631836,0.3034668,-0.088256836,0.2508545,-0.28125,205
-126.64795,-308.71582,207.33643,1.4951172,1.1228027,0.30444336,-0.088256836,0.23364258,-0.28857422,206
-60.72998,-316.5741,207.1991,1.3566895,1.0039062,0.25683594,-0.076171875,0.23364258,-0.28857422,207
5.3253174,-311.93542,195.19043,1.2207031,0.91186523,0.22851562,-0.076171875,0.23364258,-0.28857422,208
47.63794,-299.62158,175.9491,1.083252,0.80981445,0.2097168,-0.06555176,0.21899414,-0.3043213,209
73.48633,-293.1366,149.12415,0.96435547,0.6970215,0.19848633,-0.06555176,0.21899414,-0.3043213,210
85.96802,-305.77087,135.36072,0.84887695,0.57714844,0.18408203,-0.06555176,0.21899414,-0.3043213,211
93.826294,-313.55286,126.12915,0.7355957,0.5058594,0.1821289,-0.05053711,0.21203613,-0.32043457,212
103.57666,-317.59644,111.02295,0.64331055,0.45385742,0.1796875,-0.05053711,0.21203613,-0.32043457,213
109.49707,-320.60242,89.58435,0.54541016,0.4074707,0.17675781,-0.034423828,0.20800781,-0.3347168,214
120.98694,-336.66992,62.301636,0.46557617,0.3605957,0.15185547,-0.034423828,0.20800781,-0.3347168,215
127.48718,-360.7025,64.78882,0.38793945,0.26611328,0.14135742,-0.034423828,0.20800781,-0.34680176,216
112.42676,-389.61792,76.18713,0.3083496,0.15917969,0.15625,-0.018676758,0.20837402,-0.34680176,217
90.94238,-411.026,77.697754,0.22509766,0.12475586,0.17138672,-0.018676758,0.20837402,-0.34680176,218
62.63733,-445.84656,57.937622,0.125,0.002441406,0.16894531,0.009521484,0.20837402,-0.35705566,219
49.575806,-474.33472,55.93872,0.048828125,-0.04272461,0.1574707,0.009521484,0.20837402,-0.35705566,220
54.45862,-498.79456,52.963257,-0.05810547,-0.06958008,0.12915039,0.009521484,0.20837402,-0.35705566,221
54.382324,-500,49.850464,-0.12988281,-0.08911133,0.103271484,0.037353516,0.21203613,-0.36254883,222
41.610718,-500,33.63037,-0.18798828,-0.095703125,0.10644531,0.037353516,0.21203613,-0.36254883,223
22.81189,-500,18.814087,-0.22924805,-0.115234375,0.111328125,0.0670166,0.21350098,-0.36218262,224
18.38684,-500,3.7994385,-0.22973633,-0.15161133,0.13598633,0.0670166,0.21350098,-0.36218262,225
7.888794,-465.94238,-0.62561035,-0.2524414,-0.1875,0.21948242,0.0670166,0.21350098,-0.36218262,226
40.649414,-308.77686,-18.127441,-0.26757812,-0.24023438,0.42138672,0.099609375,0.21569824,-0.36328125,227
117.09595,-104.263306,-34.835815,-0.29492188,-0.31469727,0.49243164,0.099609375,0.21569824,-0.36328125,228
147.10999,62.74414,-33.554077,-0.28808594,-0.35083008,0.5397949,0.107666016,0.22155762,-0.36035156,229
144.30237,182.41882,-27.633667,-0.30615234,-0.3486328,0.61694336,0.107666016,0.22155762,-0.36035156,230
142.71545,239.19678,-17.166138,-0.33984375,-0.36254883,0.7150879,0.107666016,0.22155762,-0.36035156,231
128.06702,227.03552,-22.232056,-0.34179688,-0.37158203,0.7849121,0.10070801,0.23254395,-0.3647461,232
108.45947,207.70264,-47.561646,-0.3034668,-0.36328125,0.8359375,0.10070801,0.23254395,-0.3647461,233
84.869385,162.00256,-97.19849,-0.25024414,-0.34204102,0.89086914,0.08898926,0.23913574,-0.36950684,234
78.26233,118.392944,-142.66968,-0.18188477,-0.3173828,0.9597168,0.08898926,0.23913574,-0.36950684,235
77.89612,74.3866,-176.84937,-0.114990234,-0.2890625,1.0561523,0.08898926,0.23913574,-0.36950684,236
44.25049,42.312622,-187.60681,-0.07519531,-0.2849121,1.2209473,0.08093262,0.2515869,-0.37023926,237
2.8839111,29.296875,-182.34253,-0.07299805,-0.30395508,1.3735352,0.08093262,0.2515869,-0.37023926,238
-41.259766,27.893066,-174.43848,-0.09033203,-0.28442383,1.4992676,0.07873535,0.25378418,-0.36621094,239
-45.532227,29.571533,-171.70715,-0.103515625,-0.23730469,1.5585938,0.07873535,0.25378418,-0.36621094,240
-36.40747,20.492554,-172.08862,-0.07543945,-0.1875,1.5568848,0.07873535,0.25378418,-0.36621094,241
-16.738892,2.7008057,-184.40247,-0.044433594,-0.14111328,1.5324707,0.076538086,0.25598145,-0.36108398,242
30.258179,-17.623901,-204.80347,-0.008789063,-0.088378906,1.4882812,0.076538086,0.25598145,-0.36108398,243
47.927856,-36.453247,-232.05566,0.028320312,-0.053955078,1.4382324,0.072509766,0.2644043,-0.35339355,244
52.581787,-32.15027,-261.261,0.07324219,-0.011230469,1.3842773,0.072509766,0.2644043,-0.35339355,245
32.043457,-2.0751953,-301.78833,0.11376953,0.005615234,1.3466797,0.072509766,0.2644043,-0.35339355,246
-9.719849,-1.7852783,-327.6062,0.19018555,0.03881836,1.3286133,0.068481445,0.26916504,-0.3519287,247
-50.079346,-10.3302,-333.40454,0.30029297,0.106933594,1.3208008,0.068481445,0.26916504,-0.3519287,248
-68.63403,-29.327393,-313.23242,0.41723633,0.20751953,1.3244629,0.06188965,0.2750244,-0.3380127,249
-54.18396,-52.719116,-294.34204,0.5385742,0.34814453,1.3239746,0.06188965,0.2750244,-0.3380127,250
-20.385742,-78.59802,-280.38025,0.66796875,0.47045898,1.3134766,0.06188965,0.2750244,-0.3380127,251
4.0740967,-99.92981,-259.1858,0.7553711,0.59936523,1.2919922,0.05822754,0.27575684,-0.3310547,252
11.505127,-127.86865,-233.078,0.82006836,0.67211914,1.2331543,0.05822754,0.27575684,-0.3310547,253
10.101318,-158.73718,-184.93652,0.8376465,0.7006836,1.1259766,0.05822754,0.27648926,-0.3314209,254
25.32959,-185.08911,-121.33789,0.8388672,0.70874023,1.0532227,0.06225586,0.27648926,-0.3314209,255
29.586792,-190.59753,-72.72339,0.80908203,0.69555664,0.88256836,0.06225586,0.27648926,-0.3314209,0
14.221191,-160.01892,-42.73987,0.7788086,0.67041016,0.7836914,0.06665039,0.27685547,-0.328125,1
-16.693115,-128.69263,-19.470215,0.7429199,0.63134766,0.671875,0.06665039,0.27685547,-0.328125,2
-43.8385,-77.37732,9.414673,0.7067871,0.5974121,0.5703125,0.06665039,0.27685547,-0.3380127,3
-45.288086,-46.875,56.015015,0.67626953,0.57592773,0.49121094,0.07104492,0.27575684,-0.3380127,4
-6.2713623,-27.069092,116.43982,0.62158203,0.53271484,0.4333496,0.07104492,0.27575684,-0.3380127,5
34.91211,-14.724731,160.20203,0.57128906,0.4482422,0.41210938,0.0703125,0.27282715,-0.33361816,6
44.540405,14.389038,199.17297,0.49682617,0.36694336,0.43481445,0.0703125,0.27282715,-0.33361816,7
30.090332,48.202515,225.43335,0.43017578,0.2788086,0.48388672,0.0703125,0.2779541,-0.33398438,8
29.388428,79.437256,239.63928,0.35546875,0.20507812,0.54711914,0.07324219,0.2779541,-0.33398438,9
38.604736,108.39844,251.20544,0.2956543,0.14038086,0.6245117,0.07324219,0.2779541,-0.33398438,10
21.28601,135.72693,248.56567,0.23022461,0.0625,0.69018555,0.07434082,0.28125,-0.3310547,11
-16.51001,163.1012,237.30469,0.1315918,-0.024414062,0.90356445,0.07434082,0.28125,-0.3310547,12
-61.813354,198.1659,206.9397,0.028320312,-0.16455078,1.0759277,0.07434082,0.28125,-0.3310547,13
-124.86267,219.72656,158.14209,-0.11010742,-0.2939453,1.3078613,0.072509766,0.28527832,-0.3383789,14
-177.99377,215.6372,96.16089,-0.23242188,-0.42700195,1.4968262,0.072509766,0.28527832,-0.3383789,15
-199.98169,158.63037,26.321411,-0.30419922,-0.5227051,1.6105957,0.064453125,0.27648926,-0.33544922,16
-185.13489,84.3811,-55.252075,-0.3371582,-0.51538086,1.6450195,0.064453125,0.27648926,-0.33544922,17
-163.42163,27.130127,-123.94714,-0.33129883,-0.44726562,1.6257324,0.064453125,0.27648926,-0.33544922,18
-141.922,-46.50879,-178.60413,-0.28735352,-0.36865234,1.5654297,0.05529785,0.26696777,-0.33911133,19
-135.34546,-108.947754,-226.2268,-0.23095703,-0.2890625,1.4711914,0.05529785,0.26696777,-0.33911133,20
-137.63428,-141.17432,-266.72363,-0.15600586,-0.21166992,1.371582,0.057861328,0.25891113,-0.3310547,21
-149.74976,-162.5061,-303.69568,-0.051513672,-0.13964844,1.2990723,0.057861328,0.25891113,-0.3310547,22
-161.2091,-183.53271,-325.14954,0.057373047,-0.050048828,1.1113281,0.057861328,0.25891113,-0.3310547,23
-157.53174,-203.9032,-325.18005,0.12646484,0.050048828,0.9926758,0.05419922,0.2545166,-0.32629395,24
-131.57654,-228.34778,-303.2837,0.32885742,0.20483398,0.8586426,0.05419922,0.2545166,-0.32629395,25
-84.03015,-270.44678,-254.31824,0.48095703,0.44677734,0.73657227,0.05895996,0.25268555,-0.32006836,26
-37.17041,-258.34656,-201.66016,0.6086426,0.6640625,0.66430664,0.05895996,0.25268555,-0.32006836,27
-17.333984,-220.5658,-138.8855,0.69677734,0.83203125,0.6027832,0.05895996,0.25268555,-0.32006836,28
2.0599365,-164.12354,-66.63513,0.77319336,0.9135742,0.5439453,0.06262207,0.24975586,-0.31713867,29
24.414062,-114.44092,-0.50354004,0.81591797,0.93896484,0.5031738,0.06262207,0.24975586,-0.31713867,30
49.6521,-60.775757,75.33264,0.8479004,0.89941406,0.4794922,0.0736084,0.25012207,-0.3149414,31
85.128784,-24.780273,158.02002,0.83813477,0.83984375,0.47265625,0.0736084,0.25012207,-0.3149414,32
202.59094,10.08606,372.406,0.7404785,0.7236328,0.49389648,0.07324219,0.25561523,-0.3182373,35
187.39319,71.71631,425.64392,0.47509766,0.32592773,0.57592773,0.076538086,0.26367188,-0.3218994,38
162.41455,99.41101,417.84668,0.37109375,0.17895508,0.6113281,0.083496094,0.27539062,-0.3310547,39
133.36182,131.54602,396.01135,0.27734375,0.026123047,0.6682129,0.083496094,0.27539062,-0.3310547,40
115.31067,152.96936,371.53625,0.18945312,-0.087402344,0.73046875,0.084228516,0.2849121,-0.3380127,41
132.75146,174.01123,359.2224,0.13720703,-0.18725586,0.77612305,0.084228516,0.2849121,-0.3380127,42
167.3584,181.28967,358.36792,0.11035156,-0.28125,0.8186035,0.084228516,0.2849121,-0.3380127,43
182.86133,182.03735,346.90857,0.055664062,-0.36767578,0.9265137,0.08239746,0.29626465,-0.34350586,44
160.61401,188.32397,313.50708,-0.056884766,-0.49072266,1.0825195,0.08239746,0.29626465,-0.34350586,45
112.472534,193.25256,264.2975,-0.21508789,-0.63549805,1.2509766,0.07836914,0.30725098,-0.34899902,46
52.093506,187.11853,166.41235,-0.35009766,-0.76049805,1.4328613,0.07836914,0.30725098,-0.34899902,47
2.0599365,153.9154,59.35669,-0.47973633,-0.81469727,1.5585938,0.07836914,0.30725098,-0.34899902,48
-36.14807,104.98047,-58.517456,-0.5107422,-0.84887695,1.6364746,0.0703125,0.3116455,-0.3486328,49
-25.20752,12.649536,-177.3529,-0.49560547,-0.80859375,1.6203613,0.0703125,0.3116455,-0.3486328,50
-16.571045,-67.00134,-259.71985,-0.40039062,-0.7294922,1.5656738,0.068115234,0.30944824,-0.34643555,51
-23.635864,-143.09692,-335.22034,-0.29541016,-0.6369629,1.4929199,0.068115234,0.30944824,-0.34643555,52
-55.374146,-180.58777,-392.7002,-0.18945312,-0.5505371,1.4975586,0.068115234,0.30944824,-0.34643555,53
-96.69495,-200.24109,-434.14307,-0.103515625,-0.4609375,1.3896484,0.072143555,0.3076172,-0.33947754,54
-135.13184,-227.96631,-457.32117,-0.017578125,-0.35180664,1.3378906,0.072143555,0.3076172,-0.33947754,55
-147.41516,-258.0719,-460.76965,0.088378906,-0.23779297,1.2592773,0.07470703,0.29626465,-0.33544922,56
-140.30457,-268.64624,-457.61108,0.19995117,-0.11743164,1.1870117,0.07470703,0.29626465,-0.33544922,57
-134.17053,-256.16455,-446.6095,0.25195312,0.033447266,1.109375,0.07470703,0.29626465,-0.33544922,58
-130.05066,-230.42297,-407.08923,0.41918945,0.1796875,1.0224609,0.08129883,0.29223633,-0.32922363,59
-113.14392,-179.29077,-376.4801,0.56469727,0.421875,0.9289551,0.08129883,0.29223633,-0.32922363,60
-82.07703,-118.02673,-309.43298,0.7932129,0.77978516,0.78393555,0.08129883,0.29223633,-0.32922363,61
-53.66516,-79.62036,-143.23425,1.0551758,1.2468262,0.6040039,0.083862305,0.2849121,-0.32666016,62
30.456543,-81.48193,43.47229,1.3293457,1.5192871,0.43017578,0.083862305,0.2849121,-0.32666016,63
68.725586,-23.849487,297.86682,1.4250488,1.4838867,0.38085938,0.087890625,0.27868652,-0.3248291,64
54.58069,58.71582,459.15222,1.2675781,1.15625,0.37670898,0.087890625,0.27868652,-0.3248291,65
43.07556,99.090576,499.9237,1.0014648,0.79589844,0.4987793,0.087890625,0.27868652,-0.3248291,66
40.06958,74.06616,499.9237,0.7595215,0.51049805,0.5661621,0.09008789,0.2849121,-0.328125,67
73.04382,46.310425,498.61145,0.5827637,0.35546875,0.60961914,0.09008789,0.2849121,-0.328125,68
126.05286,58.685303,466.01868,0.4970703,0.21826172,0.6213379,0.09484863,0.2878418,-0.33581543,69
165.45105,90.17944,433.8684,0.4958496,0.07128906,0.611084,0.09484863,0.2878418,-0.33581543,70
133.11768,107.69653,414.97803,0.35375977,-0.044189453,0.6113281,0.09484863,0.2878418,-0.33581543,71
70.5719,121.35315,411.48376,0.27246094,-0.18017578,0.63061523,0.099243164,0.29956055,-0.34350586,72
10.238647,128.98254,400.14648,0.24169922,-0.28637695,0.68359375,0.099243164,0.29956055,-0.34350586,73
5.4626465,115.6311,361.60278,0.11621094,-0.3618164,0.7531738,0.099975586,0.30944824,-0.3449707,74
46.325684,109.72595,318.00842,0.033691406,-0.43432617,0.8527832,0.099975586,0.30944824,-0.3449707,75
86.883545,150.78735,308.5785,-0.06616211,-0.5344238,1.0256348,0.099975586,0.30944824,-0.3449707,76
83.236694,185.66895,348.87695,-0.125,-0.6213379,1.1291504,0.09741211,0.31530762,-0.35266113,77
18.89038,139.81628,323.85254,-0.23583984,-0.6687012,1.3376465,0.09741211,0.31530762,-0.35266113,78
-36.087036,91.659546,184.26514,-0.45532227,-0.78466797,1.5534668,0.0904541,0.32263184,-0.3548584,79
-50.476074,83.25195,56.83899,-0.61743164,-0.88500977,1.6330566,0.0904541,0.32263184,-0.3548584,80
-51.3916,22.155762,-82.91626,-0.6789551,-0.88134766,1.7387695,0.0904541,0.32263184,-0.3548584,81
-36.56006,-76.24817,-214.63013,-0.66845703,-0.8388672,1.6999512,0.087890625,0.31750488,-0.35632324,82
-27.572632,-157.33337,-328.70483,-0.5656738,-0.79248047,1.5888672,0.087890625,0.31750488,-0.35632324,83
-49.66736,-213.28735,-416.3208,-0.4580078,-0.7211914,1.4816895,0.08972168,0.31201172,-0.35266113,84
-103.5614,-245.75806,-480.49927,-0.36450195,-0.63500977,1.4013672,0.08972168,0.31201172,-0.35266113,85
-134.35364,-227.43225,-487.31995,-0.2602539,-0.5632324,1.295166,0.08972168,0.31201172,-0.35266113,86
-156.55518,-224.10583,-471.51184,-0.13769531,-0.44604492,1.1687012,0.09667969,0.30285645,-0.3453369,87
-139.9231,-240.31067,-464.79797,-0.000488281,-0.31567383,1.0388184,0.09667969,0.30285645,-0.3453369,88
-102.44751,-238.09814,-443.95447,0.11303711,-0.1928711,0.95043945,0.10253906,0.29223633,-0.34020996,89
-83.90808,-245.37659,-427.49023,0.22265625,-0.07763672,0.88256836,0.10253906,0.29223633,-0.34020996,90
-76.61438,-219.46716,-421.93604,0.3017578,0.037109375,0.85595703,0.10253906,0.29223633,-0.34020996,91
-49.072266,-126.35803,-422.19543,0.40551758,0.14526367,0.8376465,0.10217285,0.2845459,-0.33361816,92
-58.410645,-70.14465,-426.22375,0.50512695,0.33569336,0.79663086,0.10217285,0.2845459,-0.33361816,93
-48.26355,-44.8761,-389.49585,0.63134766,0.5891113,0.71191406,0.1003418,0.27539062,-0.3277588,94
-26.641846,-51.467896,-261.27625,0.78100586,0.8010254,0.61376953,0.1003418,0.27539062,-0.3277588,95
28.7323,-44.830322,-103.57666,0.8952637,0.9746094,0.5292969,0.1003418,0.27539062,-0.3277588,96
77.72827,-23.269653,35.064697,0.9206543,1.0100098,0.4975586,0.09631348,0.27209473,-0.3248291,97
89.11133,4.3182373,134.04846,0.8430176,0.94506836,0.5061035,0.09631348,0.27209473,-0.3248291,98
78.72009,36.331177,246.1853,0.5463867,0.61279297,0.5786133,0.09411621,0.2783203,-0.32995605,101
104.06494,55.038452,257.06482,0.46557617,0.5031738,0.5686035,0.099609375,0.28015137,-0.3277588,102
122.31445,72.08252,279.068,0.40405273,0.39868164,0.54345703,0.099609375,0.28015137,-0.3277588,103
120.20874,86.95984,309.24988,0.3408203,0.26513672,0.53637695,0.10070801,0.2878418,-0.33581543,104
107.77283,102.386475,326.2024,0.27172852,0.13354492,0.5563965,0.10070801,0.2878418,-0.33581543,105
93.41431,100.18921,345.1233,0.23461914,0.017578125,0.6269531,0.10070801,0.2878418,-0.33581543,106
90.789795,81.57349,341.24756,0.17211914,-0.04736328,0.7492676,0.103637695,0.29699707,-0.33618164,107
103.24097,86.73096,327.74353,0.100097656,-0.13916016,0.8725586,0.103637695,0.29699707,-0.33618164,108
106.09436,104.50745,318.63403,0.005126953,-0.2409668,1.0185547,0.103637695,0.29699707,-0.33581543,109
81.92444,137.75635,301.42212,-0.1381836,-0.3310547,1.2236328,0.10510254,0.30944824,-0.33581543,110
20.17212,136.52039,265.625,-0.26293945,-0.4729004,1.4118652,0.10510254,0.30944824,-0.33581543,111
-21.224976,92.422485,149.53613,-0.37939453,-0.59375,1.5480957,0.10070801,0.32006836,-0.3482666,112
-17.120361,43.289185,1.4038086,-0.5534668,-0.66552734,1.59375,0.10070801,0.32006836,-0.3482666,113
-30.471802,-19.714355,-105.75867,-0.5944824,-0.6723633,1.5725098,0.10070801,0.32006836,-0.3482666,114
-38.406372,-82.214355,-202.43835,-0.5751953,-0.6533203,1.5048828,0.10253906,0.32226562,-0.3453369,115
-31.280518,-124.58801,-261.71875,-0.5385742,-0.62646484,1.435791,0.10253906,0.32226562,-0.3453369,116
-13.183594,-132.96509,-297.9431,-0.49438477,-0.59106445,1.3725586,0.10620117,0.3145752,-0.34387207,117
1.4648438,-130.58472,-325.7141,-0.43579102,-0.5317383,1.2817383,0.10620117,0.3145752,-0.34387207,118
-8.377075,-130.6305,-348.66333,-0.35766602,-0.44311523,1.1706543,0.10620117,0.3145752,-0.33361816,119
-31.723022,-123.687744,-367.0349,-0.29858398,-0.3798828,1.0876465,0.10876465,0.31201172,-0.33361816,120
-58.242798,-117.1875,-382.08008,-0.24609375,-0.3310547,1.0324707,0.10876465,0.31201172,-0.33361816,121
-97.06116,-111.587524,-411.1023,-0.20581055,-0.296875,1.034668,0.10986328,0.30212402,-0.33325195,122
-132.7362,-100.6012,-429.22974,-0.1340332,-0.2565918,1.0690918,0.10986328,0.30212402,-0.33325195,123
-179.19922,-100.6012,-439.0869,0.017089844,-0.14282227,1.1362305,0.10986328,0.30212402,-0.33325195,124
-219.1925,-96.60339,-428.9093,0.16918945,0.033935547,1.1940918,0.10620117,0.29333496,-0.3251953,125
-268.11218,-72.49451,-369.68994,0.3581543,0.2705078,1.222168,0.10620117,0.29333496,-0.3251953,126
-315.33813,-73.37952,-278.16772,0.5546875,0.5654297,1.1672363,0.10144043,0.27172852,-0.3218994,127
-334.03015,-80.459595,-137.08496,0.6687012,0.7956543,1.0842285,0.10144043,0.27172852,-0.3218994,128
-328.41492,-100.81482,-46.447754,0.71069336,0.8388672,1.0441895,0.10144043,0.27172852,-0.3218994,129
-333.11462,-118.759155,14.099121,0.623291,0.8469238,1.0981445,0.10144043,0.2541504,-0.31933594,130
-378.75366,-133.37708,31.539917,0.5583496,0.779541,1.1152344,0.10144043,0.2541504,-0.31933594,131
-403.3661,-144.82117,38.43689,0.38989258,0.6784668,1.1220703,0.10583496,0.23583984,-0.30908203,132
-413.66577,-143.44788,48.309326,0.31860352,0.61987305,0.9355469,0.10583496,0.23583984,-0.30908203,133
-416.29028,-131.54602,69.47327,0.2668457,0.46826172,0.7663574,0.10583496,0.23583984,-0.30908203,134
-415.31372,-119.68994,85.494995,0.20800781,0.41455078,0.62719727,0.11206055,0.21386719,-0.29736328,135
-422.59216,-90.98816,90.86609,0.13793945,0.3815918,0.51538086,0.11206055,0.21386719,-0.29736328,136
-415.0238,-72.006226,86.02905,0.06958008,0.33544922,0.41357422,0.119018555,0.19702148,-0.28125,137
-346.05408,-48.110962,92.83447,-0.001708984,0.27124023,0.34521484,0.119018555,0.19702148,-0.28125,138
-255.34058,-32.88269,102.02026,-0.07519531,0.2421875,0.31982422,0.119018555,0.19702148,-0.28125,139
-180.52673,-13.702393,89.88953,-0.12573242,0.24584961,0.34301758,0.1237793,0.18127441,-0.2713623,140
-107.8949,19.470215,87.57019,-0.17407227,0.2512207,0.37402344,0.1237793,0.18127441,-0.2713623,141
-29.907227,62.667847,108.688354,-0.17114258,0.26513672,0.3779297,0.1307373,0.17614746,-0.27209473,142
5.4779053,55.55725,100.0061,-0.15112305,0.31518555,0.35742188,0.1307373,0.17614746,-0.27209473,143
150.05493,95.581055,35.995483,-0.2355957,0.3166504,0.31298828,0.12780762,0.1776123,-0.2746582,146
267.13562,207.9773,0.4119873,-0.17407227,0.33618164,0.25048828,0.12854004,0.18530273,-0.27978516,149
309.34143,248.15369,-10.513306,-0.13647461,0.3178711,0.35791016,0.123046875,0.19995117,-0.29553223,150
316.6046,289.2456,-30.700684,-0.11450195,0.28442383,0.4675293,0.123046875,0.19995117,-0.29553223,151
230.72815,333.90808,-77.40784,-0.13623047,0.23510742,0.70996094,0.11425781,0.21606445,-0.30541992,152
83.114624,333.61816,-118.011475,-0.16552734,0.20458984,1.0632324,0.11425781,0.21606445,-0.30541992,153
-85.34241,285.23254,-156.70776,-0.19238281,0.2902832,1.4035645,0.11425781,0.21606445,-0.30541992,154
-150.28381,169.11316,-161.2854,-0.17651367,0.47509766,1.6931152,0.09887695,0.22045898,-0.31054688,155
-123.7793,33.462524,-138.39722,-0.106933594,0.6411133,1.7780762,0.09887695,0.22045898,-0.31054688,156
-54.748535,-97.29004,-100.250244,-0.08959961,0.72631836,1.7565918,0.18237305,0.2142334,-0.30578613,157
26.550293,-74.84436,18.173218,-0.017089844,0.82006836,1.6804199,0.08862305,0.2142334,-0.30578613,158
61.645508,-144.19556,40.252686,0.06201172,0.87719727,1.4475098,0.08862305,0.2142334,-0.30578613,159
18.722534,-119.93408,50.00305,0.061767578,0.8288574,1.3723145,0.09338379,0.21569824,-0.30981445,160
-102.23389,-91.56799,46.85974,0.045410156,0.76904297,1.3054199,0.09338379,0.21569824,-0.30981445,161
-224.62463,-104.69055,32.53174,-0.012695313,0.69873047,1.3078613,0.09338379,0.21569824,-0.30578613,162
-258.37708,-135.28442,21.16394,-0.06298828,0.6323242,1.2502441,0.09887695,0.21496582,-0.30578613,163
-249.20654,-163.8031,22.872925,-0.05419922,0.57543945,1.095459,0.09887695,0.21496582,-0.30578613,164
-214.73694,-173.4314,27.450562,-0.055908203,0.51586914,0.9133301,0.09887695,0.19885254,-0.29589844,165
-146.94214,-166.5039,38.2843,-0.02709961,0.47973633,0.7207031,0.09887695,0.19885254,-0.29589844,166
-101.45569,-140.97595,48.919678,-0.013183594,0.45654297,0.53027344,0.10876465,0.18676758,-0.28930664,167
-71.73157,-101.18103,53.07007,-0.060791016,0.44458008,0.38232422,0.10876465,0.18676758,-0.28930664,168
46.783447,-13.046265,34.0271,0.02319336,0.40625,0.24780273,0.11462402,0.18530273,-0.28271484,170
164.5813,126.34277,30.197144,0.032958984,0.39624023,0.21313477,0.11425781,0.19116211,-0.28637695,173
179.22974,169.66248,41.778564,0.047851562,0.39794922,0.25463867,0.11425781,0.19116211,-0.28637695,174
151.87073,176.69678,-6.500244,0.107666016,0.41967773,0.36499023,0.11352539,0.19921875,-0.29736328,176
176.3153,224.13635,-21.835327,0.08520508,0.3791504,0.44311523,0.11352539,0.19921875,-0.29736328,177
142.48657,267.97485,10.620117,0.1459961,0.38964844,0.5180664,0.10620117,0.20947266,-0.3010254,178
119.81201,277.26746,-7.6293945,0.15551758,0.41845703,0.67456055,0.10620117,0.20947266,-0.3010254,179
105.62134,284.37805,26.71814,0.1315918,0.4086914,0.8461914,0.091918945,0.21679688,-0.31054688,180
76.27869,256.42395,25.909424,0.110839844,0.45239258,0.9494629,0.091918945,0.21679688,-0.31054688,181
72.20459,208.17566,6.881714,0.09887695,0.4873047,1.1196289,0.091918945,0.21679688,-0.31054688,182
53.741455,171.29517,11.428833,0.10449219,0.51293945,1.2045898,0.08459473,0.2211914,-0.31860352,183
12.4053955,130.43213,19.65332,0.100097656,0.56591797,1.2841797,0.08459473,0.2211914,-0.31860352,184
4.638672,91.934204,33.14209,0.103759766,0.6262207,1.3051758,0.08312988,0.22265625,-0.3244629,185
18.936157,48.980713,37.979126,0.11987305,0.6530762,1.2995605,0.08312988,0.22265625,-0.3244629,186
20.935059,10.482788,39.001465,0.107910156,0.64331055,1.2944336,0.08312988,0.22265625,-0.3244629,187
20.29419,-5.0811768,68.08472,0.0949707,0.6237793,1.260498,0.07873535,0.22375488,-0.31970215,188
25.512695,-18.966675,95.55054,0.09863281,0.6022949,1.1818848,0.07873535,0.22375488,-0.31970215,189
34.0271,-49.28589,86.57837,0.10107422,0.54467773,1.0939941,0.080566406,0.22485352,-0.3215332,190
10.116577,-52.474976,71.899414,0.07519531,0.43774414,1.0400391,0.080566406,0.22485352,-0.3215332,191
-46.569824,-50.079346,82.82471,0.064453125,0.40185547,1.0080566,0.080566406,0.22485352,-0.3215332,192
-78.65906,-56.18286,85.754395,0.052001953,0.39941406,0.9851074,0.08679199,0.22302246,-0.3215332,193
-82.13806,-62.088013,83.02307,0.046142578,0.39013672,0.95825195,0.08679199,0.22302246,-0.3215332,194
-118.118286,-58.47168,74.35608,0.018554688,0.38183594,0.9416504,0.087524414,0.22192383,-0.3145752,195
-170.42542,-42.541504,60.684204,-0.006347656,0.38793945,0.90966797,0.087524414,0.22192383,-0.3145752,196
-192.12341,-23.712158,56.80847,-0.011230469,0.41235352,0.9367676,0.087524414,0.22192383,-0.3145752,197
-171.06628,-7.2784424,64.27002,-0.010742188,0.42822266,0.83862305,0.09265137,0.21203613,-0.31018066,198
-104.73633,2.0751953,81.588745,0.012939453,0.44311523,0.7783203,0.09265137,0.21203613,-0.31018066,199
-41.809082,3.616333,103.98865,0.033447266,0.45263672,0.7080078,0.09375,0.20727539,-0.3109131,200
2.5634766,11.566162,115.17334,0.047607422,0.4729004,0.6550293,0.09375,0.20727539,-0.3109131,201
43.136597,13.916016,113.51013,0.049316406,0.46533203,0.6335449,0.09375,0.20727539,-0.3109131,202
58.47168,24.124146,96.48132,0.030517578,0.41918945,0.6491699,0.0970459,0.20910645,-0.30981445,203
33.2489,40.908813,76.18713,0.002441406,0.3762207,0.671875,0.0970459,0.20910645,-0.30981445,204
15.106201,61.019897,68.00842,0.008056641,0.38745117,0.6791992,0.09887695,0.21203613,-0.31567383,205
-9.82666,81.8634,66.26892,0.04663086,0.42041016,0.6682129,0.09887695,0.21203613,-0.31567383,206
-27.801514,85.72388,51.696777,0.06616211,0.4519043,0.68359375,0.09887695,0.21203613,-0.31567383,207
-31.204224,65.979004,0.015258789,0.045166016,0.4892578,0.7414551,0.09741211,0.2109375,-0.31274414,208
10.253906,37.582397,-35.29358,0.02368164,0.4934082,0.7871094,0.09741211,0.2109375,-0.31274414,209
27.404785,39.55078,-24.215698,0.014892578,0.46704102,0.81030273,0.09484863,0.21130371,-0.31384277,210
31.738281,42.44995,-23.895264,-0.001953125,0.4482422,0.83203125,0.09484863,0.21130371,-0.31384277,211
26.901245,48.736572,-37.17041,-0.025878906,0.42333984,0.8474121,0.09484863,0.21130371,-0.31384277,212
16.967773,56.30493,-52.444458,-0.044921875,0.38671875,0.8547363,0.092285156,0.21203613,-0.31347656,213
-1.3427734,60.37903,-77.66724,-0.06713867,0.3408203,0.8666992,0.092285156,0.21203613,-0.31347656,214
2.3651123,48.843384,-101.15051,-0.06982422,0.32421875,0.87939453,0.08569336,0.21533203,-0.3182373,215
-15.441895,-32.470703,-154.068,-0.06713867,0.3544922,1.0153809,0.079833984,0.21130371,-0.31274414,218
-19.378662,-71.71631,-164.67285,-0.06201172,0.38476562,1.0490723,0.079833984,0.21130371,-0.31274414,219
-21.072388,-102.66113,-169.8761,-0.032714844,0.4194336,1.0498047,0.079833984,0.21130371,-0.31274414,220
-25.924683,-113.40332,-166.97693,0.017822266,0.4555664,1.0219727,0.076171875,0.21240234,-0.3116455,221
-33.462524,-115.02075,-164.48975,0.076660156,0.49365234,0.98583984,0.076171875,0.21240234,-0.3116455,222
-45.578003,-108.38318,-155.74646,0.12817383,0.5444336,0.9506836,0.072143555,0.21313477,-0.31054688,223
-63.50708,-101.486206,-142.02881,0.17944336,0.609375,0.93408203,0.072143555,0.21313477,-0.31054688,224
-77.23999,-98.11401,-120.17822,0.22045898,0.6743164,0.92871094,0.072143555,0.21313477,-0.31054688,225
-60.36377,-106.170654,-87.646484,0.26708984,0.7441406,0.89501953,0.07543945,0.20800781,-0.3076172,226
-26.062012,-113.55591,-45.22705,0.31835938,0.78637695,0.8378906,0.07543945,0.20800781,-0.3076172,227
16.38794,-116.05835,-3.829956,0.3737793,0.82373047,0.77368164,0.076171875,0.20983887,-0.30322266,228
47.77527,-108.24585,42.73987,0.37646484,0.87280273,0.7001953,0.076171875,0.20983887,-0.30322266,229
67.24548,-84.6405,92.178345,0.47851562,0.8881836,0.6220703,0.076171875,0.20983887,-0.3043213,230
74.26453,-52.41394,117.47742,0.49072266,0.86157227,0.55981445,0.08239746,0.21130371,-0.3043213,231
87.890625,-17.990112,139.51111,0.48388672,0.80371094,0.5576172,0.08239746,0.21130371,-0.3043213,232
91.50696,17.242432,150.03967,0.4519043,0.7272949,0.46679688,0.088256836,0.21606445,-0.30578613,233
96.11511,40.81726,154.35791,0.40429688,0.6574707,0.46166992,0.088256836,0.21606445,-0.30578613,234
105.43823,54.656982,159.9884,0.35620117,0.58935547,0.47314453,0.088256836,0.21606445,-0.30578613,235
125.5188,59.509277,168.86902,0.30541992,0.5163574,0.48706055,0.08972168,0.21496582,-0.30944824,236
138.32092,62.194824,174.74365,0.25805664,0.4477539,0.5053711,0.08972168,0.21496582,-0.30944824,237
146.30127,74.32556,175.64392,0.20776367,0.43652344,0.5319824,0.09265137,0.22302246,-0.3149414,238
154.38843,90.95764,167.26685,0.13964844,0.31079102,0.58032227,0.09265137,0.22302246,-0.3149414,239
149.45984,106.033325,144.86694,0.0637207,0.24511719,0.65283203,0.09265137,0.22302246,-0.3149414,240
141.11328,120.49866,119.903564,-0.016113281,0.18432617,0.74658203,0.0970459,0.22998047,-0.3251953,241
135.11658,117.79785,95.55054,-0.08544922,0.15063477,0.8613281,0.0970459,0.22998047,-0.3251953,242
119.781494,110.1532,66.39099,-0.14404297,0.12597656,0.97021484,0.0970459,0.23730469,-0.33068848,243
101.33362,94.940186,31.524658,-0.21582031,0.103027344,1.0795898,0.0970459,0.23730469,-0.33068848,244
93.47534,64.071655,-0.9918213,-0.27172852,0.072021484,1.1821289,0.0970459,0.23730469,-0.33068848,245
89.81323,30.10559,-23.269653,-0.30859375,0.049560547,1.2446289,0.095214844,0.24389648,-0.33398438,246
84.6405,-1.2512207,-45.59326,-0.3227539,0.041748047,1.2871094,0.095214844,0.24389648,-0.33398438,247
81.48193,-27.60315,-67.15393,-0.3173828,0.053466797,1.3022461,0.09448242,0.24609375,-0.33581543,248
70.632935,-44.784546,-84.106445,-0.29833984,0.06738281,1.2973633,0.09448242,0.24609375,-0.33581543,249
46.14258,-53.634644,-110.9314,-0.27124023,0.083496094,1.2727051,0.09448242,0.24609375,-0.33581543,250
11.474609,-58.258057,-134.3689,-0.23657227,0.09326172,1.2336426,0.09082031,0.24865723,-0.33618164,251
-14.450073,-62.74414,-155.27344,-0.2019043,0.09790039,1.2473145,0.09082031,0.24865723,-0.33618164,252
-35.079956,-69.229126,-174.43848,-0.1665039,0.099121094,1.1359863,0.09008789,0.25012207,-0.33581543,253
-47.50061,-82.3822,-193.28308,-0.12670898,0.10083008,1.088623,0.09008789,0.25012207,-0.33581543,254
-48.339844,-97.38159,-201.72119,-0.07739258,0.06665039,1.043457,0.09008789,0.25012207,-0.33581543,255
-28.656006,-110.74829,-192.44385,0.013671875,0.20483398,0.9873047,0.091918945,0.24829102,-0.328125,0
-17.593384,-107.71179,-163.86414,0.1171875,0.25341797,0.92749023,0.091918945,0.24829102,-0.328125,1
-11.734009,-90.08789,-133.43811,0.2355957,0.4506836,0.87475586,0.08679199,0.2508545,-0.32629395,2
-8.300781,-67.18445,-92.39197,0.35302734,0.57543945,0.82910156,0.08679199,0.2508545,-0.32629395,3
-7.5683594,-39.33716,-43.99109,0.4375,0.6843262,0.80249023,0.08679199,0.2508545,-0.32629395,4
-8.041382,-19.805908,-12.130737,0.5041504,0.76293945,0.7866211,0.087524414,0.2508545,-0.32666016,5
-0.2746582,-11.230469,28.182983,0.54248047,0.8117676,0.7734375,0.087524414,0.2508545,-0.32666016,6
18.005371,-9.094238,67.96265,0.5666504,0.8276367,0.810791,0.09082031,0.25048828,-0.32556152,7
36.987305,-10.482788,101.95923,0.5695801,0.8105469,0.71435547,0.09082031,0.25048828,-0.32556152,8
55.93872,-7.675171,132.72095,0.5571289,0.76171875,0.671875,0.09082031,0.25048828,-0.32556152,9
72.18933,4.425049,167.83142,0.5227051,0.6916504,0.6850586,0.09338379,0.24865723,-0.3248291,10
79.10156,21.66748,188.0188,0.46923828,0.60131836,0.5842285,0.09338379,0.24865723,-0.3248291,11
89.44702,41.168213,203.91846,0.39331055,0.48779297,0.55126953,0.09338379,0.24865723,-0.32885742,12
106.12488,60.317993,213.10425,0.31689453,0.3852539,0.5292969,0.0970459,0.25561523,-0.32885742,13
125.59509,79.48303,213.25684,0.23632812,0.27319336,0.5341797,0.0970459,0.25561523,-0.32885742,14
138.65662,102.06604,209.48792,0.1328125,0.1694336,0.58862305,0.09887695,0.2581787,-0.3317871,15
120.895386,117.43164,177.73438,0.001220703,0.040771484,0.73706055,0.09887695,0.2581787,-0.3317871,16
79.1626,121.82617,132.04956,-0.17797852,-0.07739258,0.9284668,0.09887695,0.2581787,-0.3317871,17
23.666382,110.99243,57.69348,-0.34423828,-0.18896484,1.1687012,0.09814453,0.26733398,-0.34057617,18
-19.28711,77.423096,-28.457642,-0.4790039,-0.29077148,1.3596191,0.09814453,0.26733398,-0.34057617,19
-33.554077,26.367188,-93.26172,-0.56347656,-0.35742188,1.4577637,0.09814453,0.26660156,-0.34057617,20
-33.691406,-23.788452,-158.6914,-0.58374023,-0.38916016,1.4897461,0.09814453,0.26660156,-0.34057617,21
-17.486572,-79.0863,-198.18115,-0.54174805,-0.36987305,1.4692383,0.09814453,0.26660156,-0.34057617,22
-18.249512,-105.270386,-224.10583,-0.47607422,-0.30517578,1.4199219,0.095214844,0.2647705,-0.3383789,23
-47.11914,-108.20007,-251.11389,-0.41186523,-0.22387695,1.3666992,0.095214844,0.2647705,-0.3383789,24
-87.631226,-102.23389,-279.83093,-0.33276367,-0.16821289,1.2792969,0.091918945,0.26513672,-0.33361816,25
-114.4104,-95.581055,-296.92078,-0.25927734,-0.18701172,1.1801758,0.091918945,0.26513672,-0.33361816,26
-126.66321,-94.37561,-314.59045,-0.17456055,-0.091796875,1.0766602,0.091918945,0.26513672,-0.33361816,27
-119.75098,-99.50256,-327.6825,-0.08911133,-0.044921875,0.9719238,0.08972168,0.2574463,-0.33032227,28
-91.56799,-109.64966,-326.70593,0.016845703,0.03173828,0.89697266,0.08972168,0.2574463,-0.33032227,29
-67.12341,-118.31665,-316.45203,0.14379883,0.14160156,0.8413086,0.08496094,0.2545166,-0.32080078,30
-49.01123,-125.79346,-295.0592,0.2626953,0.27905273,0.81152344,0.08496094,0.2545166,-0.32080078,31
-40.57312,-116.79077,-262.89368,0.4206543,0.43066406,0.7800293,0.08496094,0.2545166,-0.32080078,32
-35.964966,-97.51892,-199.55444,0.5793457,0.62841797,0.7441406,0.083862305,0.2515869,-0.31604004,33
-42.32788,-48.24829,-115.93628,0.7285156,0.8161621,0.72021484,0.083862305,0.2515869,-0.31604004,34
-47.668457,-4.6539307,-39.18457,0.81152344,0.91552734,0.7150879,0.07910156,0.24902344,-0.31384277,35
-47.27173,28.9917,27.191162,0.8483887,0.96655273,0.71777344,0.07910156,0.24902344,-0.31384277,36
-29.525757,41.82434,85.98328,0.8413086,0.96240234,0.7236328,0.07910156,0.24902344,-0.31384277,37
-2.5787354,34.362793,133.72803,0.8005371,0.91381836,0.7253418,0.07836914,0.2446289,-0.31054688,38
41.488647,5.1727295,179.59595,0.8076172,0.85302734,0.7043457,0.07836914,0.2446289,-0.31054688,39
117.84363,-21.42334,230.27039,0.69091797,0.7871094,0.6513672,0.08093262,0.24609375,-0.31750488,40
153.42712,-33.15735,267.63916,0.6311035,0.6821289,0.6088867,0.08093262,0.24609375,-0.31750488,41
176.7273,-32.74536,302.21558,0.56884766,0.59472656,0.5686035,0.08093262,0.24609375,-0.31750488,42
173.06519,-13.580322,328.59802,0.49951172,0.48828125,0.54003906,0.08935547,0.2512207,-0.32080078,43
149.33777,24.551392,329.9713,0.38867188,0.36401367,0.52783203,0.08935547,0.2512207,-0.32080078,44
134.33838,68.02368,317.93213,0.2722168,0.22558594,0.52978516,0.099243164,0.26000977,-0.32739258,45
123.428345,101.59302,304.0161,0.1628418,0.07763672,0.5612793,0.099243164,0.26000977,-0.32739258,46
120.60547,116.79077,285.23254,0.051513672,-0.033691406,0.6347656,0.099243164,0.26000977,-0.32739258,47
117.27905,132.43103,247.69592,-0.0625,-0.14648438,0.73950195,0.099975586,0.26733398,-0.3317871,48
105.97229,141.67786,180.95398,-0.22167969,-0.2578125,0.89404297,0.099975586,0.26733398,-0.3317871,49
87.08191,135.49805,106.23169,-0.37646484,-0.36450195,1.0556641,0.09777832,0.2775879,-0.34240723,50
60.073853,113.31177,23.010254,-0.5197754,-0.45996094,1.2177734,0.09777832,0.2775879,-0.34240723,51
25.558472,78.14026,-82.94678,-0.63916016,-0.5161133,1.3723145,0.09777832,0.2775879,-0.34240723,52
-11.962891,41.59546,-154.86145,-0.6882324,-0.5415039,1.4641113,0.09448242,0.27868652,-0.3383789,53
-26.626587,1.2054443,-217.86499,-0.6652832,-0.5046387,1.4902344,0.09448242,0.27868652,-0.3383789,54
-18.844604,-46.64612,-269.57703,-0.6057129,-0.4411621,1.4580078,0.091918945,0.27685547,-0.34057617,55
1.9683838,-82.092285,-299.92676,-0.51538086,-0.37646484,1.3918457,0.091918945,0.27685547,-0.34057617,56
5.9814453,-100.0061,-333.9386,-0.4206543,-0.30810547,1.3000488,0.091918945,0.27685547,-0.34057617,57
-17.37976,-98.75488,-358.5205,-0.31518555,-0.23266602,1.2111816,0.088256836,0.27685547,-0.33215332,58
-55.755615,-94.54346,-366.86707,-0.18310547,-0.15771484,1.1586914,0.088256836,0.27685547,-0.33215332,59
-96.75598,-94.51294,-360.7483,-0.055908203,-0.048095703,1.1315918,0.088256836,0.274292,-0.32995605,60
-131.86646,-101.97449,-327.713,0.1237793,0.1081543,1.1091309,0.087890625,0.274292,-0.32995605,61
-148.30017,-96.98486,-272.88818,0.30273438,0.31884766,1.074707,0.087890625,0.274292,-0.32995605,62
-146.48438,-81.49719,-196.54846,0.46972656,0.55908203,1.0244141,0.08496094,0.26696777,-0.31970215,63
-121.82617,-61.12671,-88.30261,0.62109375,0.7285156,0.95092773,0.08496094,0.26696777,-0.31970215,64
-98.51074,-38.864136,-10.543823,0.7248535,0.85424805,0.8833008,0.08496094,0.26696777,-0.3182373,65
-75.45471,-22.903442,64.48364,0.7751465,0.9206543,0.83154297,0.08642578,0.26220703,-0.3182373,66
-39.916992,-16.143799,137.03918,0.77783203,0.9213867,0.7873535,0.08642578,0.26220703,-0.3182373,67
-6.866455,-15.74707,193.64929,0.810791,0.86376953,0.748291,0.08569336,0.2578125,-0.31933594,68
19.332886,-12.771606,242.40112,0.7067871,0.78393555,0.6958008,0.08569336,0.2578125,-0.31933594,69
41.519165,-6.3934326,289.7339,0.6699219,0.6977539,0.64331055,0.08569336,0.25561523,-0.32666016,70
63.034058,3.7841797,333.8623,0.6604004,0.642334,0.58813477,0.09301758,0.25561523,-0.32666016,71
85.89172,25.405884,401.22986,0.6789551,0.62109375,0.5151367,0.09301758,0.25561523,-0.32666016,72
76.73645,65.41443,458.95386,0.6791992,0.5439453,0.45654297,0.095581055,0.2574463,-0.32373047,73
50.00305,113.00659,484.1156,0.6262207,0.4116211,0.44384766,0.095581055,0.2574463,-0.32373047,74
23.81897,168.99109,479.94995,0.53637695,0.25585938,0.46948242,0.095581055,0.2574463,-0.32373047,75
31.692505,206.98547,449.3103,0.4206543,0.13916016,0.517334,0.1003418,0.26293945,-0.3310547,76
62.98828,220.00122,430.2063,0.33666992,0.043945312,0.5842285,0.1003418,0.26293945,-0.3310547,77
98.098755,223.02246,422.8058,0.29638672,-0.002197266,0.66503906,0.10180664,0.26989746,-0.34313965,78
113.51013,231.29272,412.85706,0.2565918,-0.029052734,0.7609863,0.10180664,0.26989746,-0.34313965,79
121.99402,243.08777,395.4773,0.1940918,-0.11010742,0.8352051,0.10180664,0.26989746,-0.34313965,80
141.34216,255.66101,372.51282,0.15893555,-0.16503906,0.890625,0.10217285,0.27978516,-0.34643555,81
146.6217,262.26807,340.02686,0.13549805,-0.19726562,0.9477539,0.10217285,0.27978516,-0.34643555,82
147.75085,262.68005,315.47546,0.095703125,-0.24389648,1.0053711,0.09814453,0.29040527,-0.3577881,83
141.70837,256.13403,289.67285,0.0949707,-0.2644043,1.0791016,0.09814453,0.29040527,-0.3577881,84
128.92151,237.89978,266.15906,0.08642578,-0.23779297,1.151123,0.09814453,0.29040527,-0.3577881,85
105.68237,214.2334,246.17004,0.048828125,-0.23779297,1.208252,0.08862305,0.30249023,-0.36437988,86
91.01868,178.86353,218.61267,-0.002929688,-0.24707031,1.2478027,0.08862305,0.30249023,-0.36437988,87
86.22742,142.53235,173.44666,-0.05493164,-0.2565918,1.267334,0.08093262,0.3109131,-0.36987305,88
74.98169,115.29541,143.82935,-0.08105469,-0.26123047,1.2634277,0.08093262,0.3109131,-0.36987305,89
68.89343,82.53479,107.72705,-0.09375,-0.26342773,1.2502441,0.08093262,0.3109131,-0.36987305,90
61.61499,48.324585,62.438965,-0.107421875,-0.26391602,1.2492676,0.07800293,0.31604004,-0.37280273,91
54.07715,15.701294,31.173706,-0.114990234,-0.26049805,1.2617188,0.07800293,0.31604004,-0.37280273,92
37.231445,-24.169922,-9.155273,-0.13989258,-0.25732422,1.2895508,0.076171875,0.32226562,-0.3717041,93
16.51001,-63.980103,-68.740845,-0.17480469,-0.2680664,1.3164062,0.076171875,0.32226562,-0.3717041,94
-19.699097,-102.371216,-120.30029,-0.21679688,-0.29370117,1.3679199,0.076171875,0.32226562,-0.3717041,95
-53.359985,-155.5481,-190.10925,-0.2680664,-0.31469727,1.4287109,0.079833984,0.32263184,-0.37390137,96
-79.29993,-213.91296,-261.4746,-0.28710938,-0.33374023,1.4648438,0.079833984,0.32263184,-0.37390137,97
-102.58484,-256.6681,-309.0973,-0.31054688,-0.33789062,1.4707031,0.08642578,0.3149414,-0.36730957,98
-117.27905,-302.0935,-352.31018,-0.19238281,-0.31811523,1.4665527,0.08642578,0.3149414,-0.36730957,99
-121.59729,-343.27698,-383.65173,-0.18334961,-0.28881836,1.4294434,0.08642578,0.3149414,-0.36730957,100
-127.60925,-350.6775,-413.4369,-0.05908203,-0.28222656,1.3503418,0.095214844,0.3043213,-0.3577881,101
-148.71216,-342.05627,-451.61438,-0.033203125,-0.31201172,1.2912598,0.095214844,0.3043213,-0.3577881,102
-173.08044,-331.69556,-493.60657,-0.012451172,-0.34033203,1.2370605,0.104003906,0.29223633,-0.35229492,103
-183.45642,-327.6062,-500,0.029052734,-0.3400879,1.1794434,0.104003906,0.29223633,-0.35229492,104
-182.2815,-314.3158,-500,0.08886719,-0.31152344,1.1066895,0.104003906,0.29223633,-0.35229492,105
-179.8706,-289.93225,-500,0.15332031,-0.26245117,1.0083008,0.11462402,0.2709961,-0.33984375,106
-180.6488,-261.39832,-500,0.23364258,-0.18432617,0.9177246,0.11462402,0.2709961,-0.33984375,107
-182.76978,-229.11072,-499.98474,0.31347656,-0.07861328,0.8300781,0.11279297,0.25634766,-0.33032227,108
-183.27332,-184.67712,-482.07092,0.36083984,0.042236328,0.76416016,0.11279297,0.25634766,-0.33032227,109
-182.95288,-141.20483,-450.11902,0.4116211,0.15405273,0.7043457,0.11279297,0.25634766,-0.33032227,110
-179.55017,-52.55127,-355.68237,0.49975586,0.3503418,0.61816406,0.10839844,0.24353027,-0.32299805,112
-165.86304,-32.15027,-318.3136,0.43579102,0.39941406,0.59814453,0.10839844,0.22888184,-0.31677246,113
-141.52527,-28.305054,-283.8745,0.4362793,0.45336914,0.59350586,0.09667969,0.22888184,-0.31677246,114
-110.565186,-36.026,-246.30737,0.43237305,0.49780273,0.6191406,0.09667969,0.22888184,-0.31677246,115
-96.0083,-50.64392,-207.62634,0.43530273,0.5461426,0.68066406,0.09008789,0.22558594,-0.30541992,116
-91.36963,-68.81714,-160.36987,0.45214844,0.6147461,0.7573242,0.09008789,0.22558594,-0.30541992,117
-96.31348,-81.06995,-100.96741,0.47583008,0.6999512,0.8190918,0.0904541,0.21716309,-0.3050537,118
-100.15869,-79.97131,-39.657593,0.49975586,0.7922363,0.8305664,0.0904541,0.21716309,-0.3050537,119
-84.18274,-72.387695,24.734497,0.52685547,0.845459,0.7961426,0.0904541,0.21716309,-0.3050537,120
-60.424805,-48.78235,105.57556,0.5539551,0.8901367,0.7294922,0.088256836,0.21240234,-0.30065918,121
-39.978027,-15.472412,160.33936,0.5695801,0.9165039,0.6689453,0.088256836,0.21240234,-0.30065918,122
-28.793335,16.952515,229.27856,0.55810547,0.90649414,0.61938477,0.088256836,0.21240234,-0.30065918,123
-1.3275146,40.283203,297.27173,0.52856445,0.8601074,0.57788086,0.09777832,0.21313477,-0.29736328,124
28.579712,60.180664,345.76416,0.4975586,0.80126953,0.55078125,0.09777832,0.21313477,-0.29736328,125
54.718018,75.790405,390.7013,0.45776367,0.70336914,0.515625,0.10144043,0.21276855,-0.30212402,126
89.20288,94.192505,423.0652,0.4008789,0.5917969,0.48754883,0.10144043,0.21276855,-0.30212402,127
124.89319,112.62512,438.41553,0.3466797,0.46923828,0.46801758,0.10144043,0.21276855,-0.30212402,128
150.97046,136.2915,444.458,0.29638672,0.3479004,0.45898438,0.10913086,0.21862793,-0.31054688,129
172.42432,166.87012,439.80408,0.24389648,0.24609375,0.46166992,0.10913086,0.21862793,-0.31054688,130
192.76428,200.19531,429.62646,0.20532227,0.1472168,0.46118164,0.11755371,0.23217773,-0.321167,131
205.16968,248.61145,418.9453,0.18188477,0.07543945,0.4645996,0.11755371,0.23217773,-0.321167,132
212.35657,300.0183,410.38513,0.17480469,0.010253906,0.4807129,0.11755371,0.23217773,-0.321167,133
220.70312,337.20398,403.4729,0.17602539,-0.04345703,0.5222168,0.11975098,0.24609375,-0.3317871,134
243.60657,355.62134,399.00208,0.19213867,-0.07885742,0.5957031,0.11975098,0.24609375,-0.3317871,135
280.01404,358.10852,404.19006,0.2133789,-0.09423828,0.68066406,0.11462402,0.2647705,-0.34313965,136
311.84387,351.68457,409.40857,0.23632812,-0.11230469,0.7453613,0.11462402,0.2647705,-0.34313965,137
341.55273,348.8922,414.64233,0.25878906,-0.13598633,0.82421875,0.11462402,0.2647705,-0.34313965,138
328.59802,353.80554,407.89795,0.27368164,-0.17480469,0.9133301,0.10839844,0.29040527,-0.3515625,139
291.03088,364.83765,395.93506,0.2692871,-0.22753906,1.0021973,0.10839844,0.29040527,-0.3515625,140
253.96729,371.68884,376.70898,0.26416016,-0.26220703,1.1049805,0.09411621,0.3149414,-0.36035156,141
205.03235,355.75867,340.33203,0.21142578,-0.30249023,1.1901855,0.09411621,0.3149414,-0.36035156,142
166.87012,322.2351,295.7306,0.122802734,-0.34350586,1.3959961,0.09411621,0.3149414,-0.36035156,143
137.37488,250.97656,245.45288,0.024169922,-0.3720703,1.5356445,0.07946777,0.335083,-0.37353516,144
118.83545,168.79272,184.60083,-0.072753906,-0.3857422,1.6628418,0.07946777,0.335083,-0.37353516,145
98.236084,94.36035,138.16833,-0.12890625,-0.3840332,1.7253418,0.06994629,0.3413086,-0.37353516,146
69.39697,33.981323,93.00232,-0.15112305,-0.38110352,1.7436523,0.06994629,0.3413086,-0.37353516,147
31.982422,-21.026611,36.575317,-0.14257812,-0.36865234,1.7150879,0.06994629,0.3413086,-0.37353516,148
-7.9193115,-53.497314,1.9073486,-0.115722656,-0.3552246,1.6542969,0.06628418,0.34899902,-0.37280273,149
-54.351807,-76.5686,-38.78784,-0.09106445,-0.34448242,1.5710449,0.06628418,0.34899902,-0.37280273,150
-96.832275,-106.35376,-88.012695,-0.09741211,-0.34204102,1.4841309,0.07067871,0.3446045,-0.37390137,151
-120.71228,-135.37598,-133.23975,-0.13061523,-0.35839844,1.4187012,0.07067871,0.3446045,-0.37390137,152
-136.73401,-167.84668,-202.40784,-0.17993164,-0.38549805,1.3647461,0.07067871,0.3446045,-0.37390137,153
-152.6947,-197.99805,-274.04785,-0.22753906,-0.42016602,1.3708496,0.0769043,0.335083,-0.37316895,154
-163.65051,-219.48242,-332.3059,-0.21411133,-0.4416504,1.2492676,0.0769043,0.335083,-0.37316895,155
-162.5061,-246.15479,-374.1455,-0.14672852,-0.4326172,1.1879883,0.08496094,0.31970215,-0.36914062,156
-163.84888,-270.30945,-409.60693,-0.052246094,-0.40771484,1.1462402,0.08496094,0.31970215,-0.36914062,157
-167.3584,-290.7257,-434.06677,0.020263672,-0.43408203,1.1252441,0.08496094,0.31970215,-0.36914062,158
-169.12842,-301.95618,-458.63342,0.087890625,-0.328125,1.1115723,0.09484863,0.3083496,-0.35961914,159
-168.02979,-298.15674,-481.5216,0.16577148,-0.30566406,1.0888672,0.09484863,0.3083496,-0.35961914,160
-167.67883,-281.9519,-493.2556,0.22216797,-0.16552734,1.0576172,0.10217285,0.29040527,-0.3486328,161
-165.51208,-252.97546,-497.05505,0.25195312,-0.111572266,1.0126953,0.10217285,0.29040527,-0.3486328,162
-177.30713,-218.20068,-484.90906,0.26733398,-0.061279297,0.954834,0.10217285,0.29040527,-0.3486328,163
-183.56323,-200.56152,-460.84595,0.27734375,-0.035888672,0.90527344,0.10583496,0.27648926,-0.34387207,164
-171.70715,-209.88464,-443.09998,0.2692871,-0.022705078,0.8652344,0.10583496,0.27648926,-0.34387207,165
-133.66699,-243.04199,-438.24768,0.27124023,0.000732422,0.84936523,0.10546875,0.26220703,-0.33728027,166
-82.107544,-293.2434,-439.59045,0.2783203,0.032714844,0.85595703,0.10546875,0.26220703,-0.33728027,167
-30.136108,-332.489,-429.71802,0.2878418,0.084228516,0.8491211,0.10546875,0.26220703,-0.33728027,168
258.94165,417.93823,-18.676758,-0.33544922,-0.36132812,1.0805664,0.14685059,0.2808838,-0.33618164,126
246.85669,402.52686,-63.90381,-0.3413086,-0.37109375,1.1621094,0.14685059,0.2808838,-0.34313965,127
227.89001,374.49646,-116.42456,-0.3317871,-0.36450195,1.2468262,0.1303711,0.2977295,-0.34313965,128
206.69556,325.28687,-180.7251,-0.31982422,-0.35253906,1.3527832,0.1303711,0.2977295,-0.34313965,129
195.32776,260.0708,-213.39417,-0.30322266,-0.33276367,1.4523926,0.110961914,0.3112793,-0.34643555,130
192.10815,193.55774,-253.64685,-0.2836914,-0.2919922,1.5595703,0.110961914,0.3112793,-0.34643555,131
140.1825,133.56018,-298.91968,-0.3125,-0.25146484,1.6733398,0.110961914,0.32263184,-0.34716797,132
65.597534,50.01831,-321.99097,-0.21777344,-0.18188477,1.8603516,0.09741211,0.32263184,-0.34716797,133
30.807495,-60.10437,-332.26013,-0.17114258,-0.041748047,1.982666,0.09741211,0.32263184,-0.34716797,134
-57.81555,-125.808716,-327.89612,-0.13330078,0.018554688,1.9975586,0.09814453,0.32592773,-0.33654785,135
-152.45056,-162.78076,-313.99536,-0.088378906,0.0078125,2.0019531,0.09814453,0.32592773,-0.33654785,136
-238.26599,-221.48132,-300.47607,-0.041748047,0.033203125,2.024414,0.09814453,0.32592773,-0.33654785,137
-309.4635,-270.7672,-277.3285,0.018798828,0.08251953,1.9780273,0.10180664,0.31347656,-0.3343506,138
-344.74182,-302.6123,-254.94385,0.07421875,0.10131836,1.9094238,0.10180664,0.31347656,-0.3343506,139
-376.72424,-327.02637,-238.61694,0.13183594,0.099609375,1.8364258,0.111328125,0.29260254,-0.33325195,140
-401.96228,-369.12537,-225.93689,0.17163086,0.099121094,1.7451172,0.111328125,0.29260254,-0.33325195,141
-399.8108,-413.1012,-194.06128,0.22631836,0.12207031,1.607666,0.111328125,0.29260254,-0.33325195,142
-323.98987,-465.3473,-133.28552,0.3166504,0.1743164,1.3764648,0.119384766,0.26843262,-0.32702637,143
-219.80286,-498.27576,-63.430786,0.40283203,0.23828125,1.1589355,0.119384766,0.26843262,-0.32702637,144
-160.96497,-492.2638,-6.744385,0.46606445,0.296875,0.88134766,0.13513184,0.24829102,-0.3083496,145
-165.77148,-439.25476,52.53601,0.48754883,0.34692383,0.6687012,0.13513184,0.24829102,-0.3083496,146
-178.6499,-350.84534,79.02527,0.43652344,0.38745117,0.5148926,0.13513184,0.24829102,-0.3083496,147
-153.88489,-297.3938,77.37732,0.34960938,0.36206055,0.37841797,0.15344238,0.23474121,-0.29956055,148
-123.61145,-229.69055,62.13379,0.24707031,0.3022461,0.30615234,0.15344238,0.23474121,-0.29956055,149
-115.875244,-152.03857,80.16968,0.16333008,0.26757812,0.26464844,0.1640625,0.22558594,-0.28857422,150
-112.472534,-110.91614,142.6239,0.1315918,0.27416992,0.25268555,0.1640625,0.22558594,-0.28857422,151
-92.59033,-90.31677,197.17407,0.13061523,0.33129883,0.27026367,0.1640625,0.22558594,-0.28857422,152
-48.26355,-67.04712,193.86292,0.091308594,0.3408203,0.28710938,0.1739502,0.22338867,-0.2849121,153
-4.562378,-64.04114,230.54504,0.06665039,0.31176758,0.2746582,0.1739502,0.22338867,-0.2849121,154
29.922485,-26.748657,266.64734,0.05078125,0.3317871,0.26171875,0.18054199,0.22814941,-0.28637695,155
90.75928,9.140015,290.6189,0.028076172,0.32080078,0.2475586,0.18054199,0.22814941,-0.28637695,156
144.40918,22.644043,308.10547,0.005859375,0.2993164,0.22583008,0.18054199,0.22814941,-0.28637695,157
171.46301,50.979614,307.0526,-0.052001953,0.23632812,0.22998047,0.1875,0.24060059,-0.2874756,158
98.968506,132.70569,316.26892,-0.16967773,0.10839844,0.25634766,0.1875,0.24060059,-0.2874756,159
127.68555,171.47827,323.37952,-0.24365234,0.032470703,0.26123047,0.19445801,0.25854492,-0.29187012,160
159.37805,227.12708,314.40735,-0.30566406,-0.04248047,0.28515625,0.19445801,0.25854492,-0.29187012,161
207.99255,274.93286,284.83582,-0.34228516,-0.123535156,0.30566406,0.19445801,0.25854492,-0.29187012,162
227.56958,317.32178,250.06104,-0.3642578,-0.20825195,0.34936523,0.19042969,0.27978516,-0.30688477,163
227.79846,376.02234,219.02466,-0.3786621,-0.29760742,0.4206543,0.19042969,0.27978516,-0.30688477,164
217.55981,420.70007,188.52234,-0.390625,-0.359375,0.53686523,0.18310547,0.29882812,-0.31750488,165
218.32275,449.00513,162.27722,-0.39624023,-0.41455078,0.654541,0.18310547,0.29882812,-0.31750488,166
225.11292,465.25574,121.73462,-0.40551758,-0.46118164,0.7800293,0.18310547,0.29882812,-0.31750488,167
232.0404,466.9342,48.110962,-0.4255371,-0.5136719,0.923584,0.16662598,0.31896973,-0.33361816,168
236.78589,431.44226,-15.319824,-0.45776367,-0.5522461,1.0556641,0.16662598,0.31896973,-0.33361816,169
229.61426,359.5581,-71.56372,-0.46777344,-0.5576172,1.1335449,0.1439209,0.335083,-0.3383789,170
240.12756,259.15527,-65.42969,-0.4482422,-0.49487305,1.3049316,0.1439209,0.335083,-0.3383789,171
225.0061,188.23242,-30.62439,-0.3779297,-0.390625,1.4177246,0.1439209,0.335083,-0.3383789,172
149.18518,112.79297,-76.70593,-0.2932129,-0.2602539,1.5610352,0.13476562,0.35266113,-0.33947754,174
129.45557,84.9762,-79.055786,-0.23730469,-0.22241211,1.5688477,0.13476562,0.36108398,-0.3347168,175
72.60132,56.21338,-86.56311,-0.20751953,-0.2175293,1.604248,0.12487793,0.36108398,-0.3347168,176
-22.949219,27.98462,-98.342896,-0.20166016,-0.21191406,1.703125,0.12487793,0.36108398,-0.3347168,177
-140.8844,-8.453369,-115.02075,-0.21435547,-0.16186523,1.8503418,0.12597656,0.36584473,-0.33618164,178
-234.54285,-42.617798,-128.43323,-0.24975586,-0.10839844,1.9509277,0.12597656,0.36584473,-0.33618164,179
-310.82153,-85.76965,-145.87402,-0.25048828,-0.0949707,1.9758301,0.123046875,0.34899902,-0.34020996,180
-371.27686,-121.58203,-154.26636,-0.22851562,-0.10229492,1.9628906,0.123046875,0.34899902,-0.34020996,181
-390.86914,-171.92078,-151.87073,-0.16308594,-0.076416016,1.9316406,0.123046875,0.34899902,-0.34020996,182
-365.1123,-225.44861,-129.19617,-0.08959961,-0.056640625,1.7211914,0.13000488,0.3215332,-0.3347168,183
-320.37354,-255.59998,-108.53577,-0.061279297,-0.045654297,1.5285645,0.13000488,0.3215332,-0.3347168,184
-251.75476,-281.1432,-77.59094,0.0703125,-0.017578125,1.295166,0.13000488,0.3215332,-0.3347168,185
-197.95227,-282.74536,-43.319702,0.11010742,-0.009521484,1.0854492,0.13513184,0.29992676,-0.33215332,186
-191.0553,-248.61145,-18.539429,0.09277344,-0.03125,0.92456055,0.13513184,0.29992676,-0.33215332,187
-218.79578,-193.20679,-9.567261,0.025390625,-0.04736328,0.88720703,0.14538574,0.28308105,-0.32409668,188
-252.74658,-138.90076,-16.845703,-0.084472656,-0.05444336,0.91625977,0.14538574,0.28308105,-0.32409668,189
-265.13672,-106.277466,-31.402588,-0.20092773,-0.08129883,0.9602051,0.14538574,0.28308105,-0.32409668,190
-269.2566,-98.40393,-43.97583,-0.30639648,-0.107177734,0.9807129,0.14978027,0.2680664,-0.32263184,191
-260.75745,-112.854004,-72.34192,-0.35864258,-0.095947266,0.97314453,0.14978027,0.2680664,-0.32263184,192
-236.8164,-116.42456,-104.50745,-0.36767578,-0.048095703,0.92089844,0.15197754,0.24829102,-0.31750488,193
-188.75122,-102.18811,-115.12756,-0.3088379,0.006103516,0.83374023,0.15197754,0.24829102,-0.31750488,194
-168.82324,-71.884155,-63.827515,-0.19848633,0.13842773,0.74780273,0.15197754,0.24829102,-0.31750488,195
-149.97864,-42.57202,-22.232056,-0.09057617,0.26171875,0.64282227,0.15527344,0.23217773,-0.31420898,196
-125.90027,-17.593384,15.960693,-0.04638672,0.2980957,0.51538086,0.15527344,0.23217773,-0.31420898,197
-102.18811,3.9672852,35.55298,-0.053710938,0.2890625,0.3840332,0.15637207,0.2241211,-0.30871582,198
-56.671143,19.821167,37.887573,-0.07910156,0.25317383,0.2800293,0.15637207,0.2241211,-0.30871582,199
1.4801025,17.440796,37.826538,-0.08178711,0.22729492,0.21704102,0.15637207,0.2241211,-0.30871582,200
65.29236,12.832642,47.592163,-0.061279297,0.23779297,0.19482422,0.15490723,0.22045898,-0.30358887,201
107.84912,13.092041,65.99426,-0.040039062,0.24975586,0.19506836,0.15490723,0.22045898,-0.30358887,202
131.11877,30.50232,82.26013,-0.02368164,0.24536133,0.18286133,0.15783691,0.22229004,-0.31604004,203
141.09802,69.3512,91.18652,-0.0078125,0.22802734,0.1550293,0.15783691,0.22229004,-0.31604004,204
151.45874,102.7832,93.444824,0.003173828,0.21069336,0.14477539,0.15783691,0.22229004,-0.31604004,205
164.23035,127.38037,92.178345,0.004394531,0.19506836,0.15356445,0.1538086,0.23327637,-0.31896973,206
174.40796,149.00208,87.34131,0.001953125,0.17260742,0.1730957,0.1538086,0.23327637,-0.31896973,207
222.3053,187.77466,66.7572,-0.006347656,0.10546875,0.22851562,0.15014648,0.24499512,-0.321167,210
254.05884,218.24646,61.523438,0.003173828,0.048095703,0.22631836,0.14575195,0.2607422,-0.3284912,211
304.03137,290.08484,39.44397,0.033935547,-0.103027344,0.33862305,0.13513184,0.27868652,-0.33947754,213
326.32446,304.1687,37.094116,0.0546875,-0.15356445,0.43774414,0.13513184,0.27868652,-0.33947754,214
329.29993,315.75012,33.14209,0.08081055,-0.1953125,0.6796875,0.13513184,0.27868652,-0.33947754,215
328.07922,302.97852,36.52954,0.123046875,-0.1940918,0.83032227,0.119018555,0.30212402,-0.33728027,216
316.87927,270.62988,50.27771,0.16308594,-0.15039062,1.0876465,0.119018555,0.30212402,-0.33728027,217
299.17908,232.5592,71.92993,0.19482422,-0.095703125,1.2617188,0.10839844,0.3284912,-0.33911133,218
276.18408,186.17249,108.88672,0.21679688,-0.033691406,1.4086914,0.10839844,0.3284912,-0.33911133,219
259.7046,140.06042,143.24951,0.24853516,-0.012451172,1.503418,0.10839844,0.3284912,-0.33911133,220
245.97168,107.74231,178.32947,0.2692871,-0.04296875,1.5893555,0.10437012,0.3511963,-0.33618164,221
228.69873,89.019775,210.7544,0.29248047,-0.079833984,1.6252441,0.10437012,0.3511963,-0.33618164,222
201.61438,57.662964,231.23169,0.31518555,-0.08105469,1.8005371,0.10180664,0.36950684,-0.3310547,223
154.63257,22.781372,267.24243,0.32202148,-0.06665039,1.9401855,0.10180664,0.36950684,-0.3310547,224
96.5271,-19.332886,299.2096,0.3215332,-0.041992188,2.0256348,0.10180664,0.36950684,-0.3310547,225
19.39392,-50.27771,303.63464,0.26245117,-0.056152344,2.066162,0.09741211,0.38232422,-0.33215332,226
-64.55994,-67.733765,292.2516,0.16552734,-0.119140625,2.0268555,0.09741211,0.38232422,-0.33215332,227
-146.5149,-75.24109,279.8462,0.09448242,-0.16796875,1.8933105,0.10217285,0.38635254,-0.3343506,228
-207.83997,-84.07593,275.9552,0.072509766,-0.20483398,1.7145996,0.10217285,0.38635254,-0.3343506,229
-244.85779,-70.32776,275.29907,0.09448242,-0.23583984,1.5056152,0.10217285,0.38635254,-0.3343506,230
-259.38416,-56.427002,274.33777,0.1274414,-0.2487793,1.253418,0.10253906,0.37060547,-0.34387207,231
-238.66272,-42.816162,273.39172,0.16479492,-0.26879883,1.0422363,0.10253906,0.37060547,-0.34387207,232
-200.65308,-40.71045,272.53723,0.18896484,-0.27416992,0.8625488,0.10253906,0.37060547,-0.34899902,233
-167.92297,-37.597656,261.35254,0.15966797,-0.29736328,0.72875977,0.103271484,0.3519287,-0.34899902,234
-152.63367,-26.641846,242.73682,0.07495117,-0.3305664,0.6682129,0.103271484,0.3519287,-0.34899902,235
-151.94702,-7.217407,208.84705,-0.020507812,-0.37695312,0.6594238,0.10437012,0.3453369,-0.3544922,236
-145.72144,2.9449463,180.11475,-0.08569336,-0.40600586,0.6677246,0.10437012,0.3453369,-0.3544922,237
-126.02234,-10.726929,172.25647,-0.09741211,-0.4074707,0.66845703,0.10437012,0.3453369,-0.3544922,238
-138.24463,-15.930176,124.0387,-0.118896484,-0.39868164,0.68896484,0.10473633,0.33581543,-0.35668945,239
-139.98413,30.10559,-1.3275146,-0.23852539,-0.42651367,0.72216797,0.10473633,0.33581543,-0.35668945,240
-103.80554,43.33496,-115.50903,-0.36767578,-0.5046387,0.7583008,0.10437012,0.32885742,-0.3577881,241
-71.77734,-14.511108,-181.97632,-0.44335938,-0.52734375,0.8173828,0.10437012,0.32885742,-0.3577881,242
-9.658813,-53.009033,-275.52795,-0.50756836,-0.53100586,0.85668945,0.10437012,0.321167,-0.36108398,243
19.866943,-93.53638,-362.7472,-0.51049805,-0.57470703,0.8730469,0.103637695,0.321167,-0.36108398,244
51.376343,-98.89221,-433.136,-0.46044922,-0.5534668,0.88134766,0.103637695,0.321167,-0.36108398,245
72.3114,-74.920654,-498.29102,-0.42138672,-0.54956055,0.8544922,0.106933594,0.3182373,-0.35559082,246
80.3833,-67.19971,-500,-0.35302734,-0.52612305,0.8417969,0.106933594,0.3182373,-0.35559082,247
118.6676,-63.415527,-500,-0.20605469,-0.47924805,0.8640137,0.106933594,0.3182373,-0.35559082,248
151.35193,-76.23291,-500,-0.04711914,-0.39379883,0.9042969,0.106933594,0.32006836,-0.35229492,249
168.24341,-74.21875,-500,0.004394531,-0.32983398,0.9519043,0.106933594,0.32006836,-0.35229492,250
136.50513,-53.03955,-500,0.096191406,-0.3076172,1.0087891,0.10437012,0.32373047,-0.3482666,251
79.330444,-36.78894,-500,0.06616211,-0.28295898,1.0537109,0.10437012,0.32373047,-0.3482666,252
45.288086,-39.5813,-483.6731,0.19238281,-0.2319336,1.0844727,0.10437012,0.32373047,-0.3482666,253
37.231445,-37.643433,-443.51196,0.2758789,-0.1586914,1.1044922,0.10180664,0.3284912,-0.3383789,254
38.589478,-39.382935,-403.7323,0.37231445,-0.08935547,1.1230469,0.10180664,0.3284912,-0.3383789,255
52.505493,-57.95288,-348.4192,0.4584961,-0.006591797,1.1540527,0.099243164,0.3248291,-0.3347168,0
54.733276,-82.611084,-286.89575,0.52490234,0.115722656,1.2246094,0.099243164,0.3248291,-0.3347168,1
25.71106,-115.84473,-213.7146,0.54711914,0.22070312,1.3100586,0.099243164,0.3248291,-0.3347168,2
-7.751465,-140.91492,-141.4032,0.55810547,0.27954102,1.3686523,0.103271484,0.32629395,-0.33288574,3
-48.38562,-159.92737,-71.380615,0.5632324,0.31811523,1.4038086,0.103271484,0.32629395,-0.33288574,4
-82.6416,-171.72241,8.911133,0.5773926,0.3491211,1.411377,0.11206055,0.32226562,-0.3310547,5
-103.53088,-171.41724,62.194824,0.6040039,0.37548828,1.3928223,0.11206055,0.32226562,-0.3310547,6
-126.11389,-163.22327,126.92261,0.6455078,0.40112305,1.354248,0.11206055,0.32226562,-0.3310547,7
-161.5448,-147.18628,203.26233,0.69555664,0.43896484,1.2929688,0.1138916,0.3149414,-0.33068848,8
-186.87439,-133.37708,265.86914,0.7233887,0.45825195,1.246582,0.1138916,0.3149414,-0.33068848,9
-197.86072,-116.18042,346.77124,0.7175293,0.43237305,1.060791,0.12231445,0.30249023,-0.3314209,10
-189.37683,-95.077515,411.9568,0.68603516,0.38476562,0.93237305,0.12231445,0.30249023,-0.3314209,11
-159.13391,-74.26453,458.6792,0.6530762,0.32861328,0.7883301,0.12231445,0.30249023,-0.3314209,12
-114.44092,-51.834106,494.58313,0.61157227,0.25976562,0.66625977,0.13220215,0.3017578,-0.33215332,13
-64.02588,-27.633667,499.9237,0.5720215,0.18554688,0.57299805,0.13220215,0.3017578,-0.33215332,14
-26.153564,-3.4179688,499.9237,0.532959,0.10644531,0.52563477,0.14172363,0.30322266,-0.3380127,15
-0.48828125,29.49524,499.9237,0.46435547,0.022460938,0.50341797,0.14172363,0.30322266,-0.3380127,16
-9.399414,86.502075,499.9237,0.3942871,-0.087402344,0.52856445,0.14172363,0.30322266,-0.3380127,17
-24.978638,138.97705,499.9237,0.3359375,-0.15698242,0.55981445,0.14648438,0.31530762,-0.3446045,18
-19.042969,174.19434,499.9237,0.28466797,-0.22021484,0.58154297,0.14648438,0.31530762,-0.3446045,19
15.548706,156.09741,499.9237,0.2800293,-0.2849121,0.5852051,0.1472168,0.32739258,-0.3482666,20
-54.519653,131.72913,499.9237,0.16137695,-0.3564453,0.6652832,0.1472168,0.32739258,-0.3482666,21
-29.922485,179.21448,484.40552,-0.053710938,-0.46972656,0.7285156,0.1472168,0.32739258,-0.3482666,22
-10.7421875,210.08301,374.115,-0.26000977,-0.6105957,0.75561523,0.14282227,0.34204102,-0.35559082,23
15.991211,174.30115,339.50806,-0.3425293,-0.64404297,0.9199219,0.14282227,0.34204102,-0.35559082,24
57.769775,148.75793,273.0255,-0.37182617,-0.60913086,1.001709,0.14282227,0.3511963,-0.36621094,25
60.08911,88.50098,229.94995,-0.33276367,-0.6044922,1.0637207,0.13293457,0.3511963,-0.36621094,26
46.3562,90.0116,196.7926,-0.31982422,-0.5917969,1.0996094,0.13293457,0.3511963,-0.36621094,27
7.446289,95.581055,169.08264,-0.34106445,-0.6040039,1.1411133,0.13183594,0.35925293,-0.3687744,28
-9.063721,82.717896,125.71716,-0.36401367,-0.6008301,1.1862793,0.13183594,0.35925293,-0.3687744,29
-5.706787,75.149536,75.69885,-0.40283203,-0.6125488,1.206543,0.13183594,0.35925293,-0.37683105,30
4.7302246,53.93982,16.540527,-0.45336914,-0.63134766,1.2185059,0.12670898,0.36401367,-0.37683105,31
17.578125,26.046753,-50.979614,-0.49731445,-0.6394043,1.2141113,0.12670898,0.36401367,-0.37683105,32
24.963379,-4.8217773,-107.65076,-0.5625,-0.6542969,1.2004395,0.12121582,0.36364746,-0.37683105,33
31.036377,-33.27942,-203.06396,-0.6442871,-0.6772461,1.1765137,0.12121582,0.36364746,-0.37683105,34
35.980225,-67.977905,-310.56213,-0.72924805,-0.7182617,1.1499023,0.1270752,0.3647461,-0.375,35
48.217773,-97.76306,-398.39172,-0.7609863,-0.7507324,1.0893555,0.1270752,0.3647461,-0.375,36
50.14038,-112.62512,-483.2306,-0.73950195,-0.7780762,1.0148926,0.1270752,0.3647461,-0.375,37
53.024292,-116.882324,-500,-0.64697266,-0.79296875,0.9929199,0.13220215,0.36035156,-0.36621094,38
58.47168,-118.43872,-500,-0.51904297,-0.7902832,0.8757324,0.13220215,0.36035156,-0.36621094,39
73.394775,-120.391846,-500,-0.34936523,-0.7714844,0.85009766,0.13220215,0.36035156,-0.36621094,40
100.58594,-124.816895,-500,-0.19384766,-0.74121094,0.8498535,0.13330078,0.35009766,-0.3581543,41
126.4801,-122.61963,-500,-0.06665039,-0.69921875,0.8679199,0.13330078,0.35009766,-0.3581543,42
159.89685,-109.313965,-500,0.040771484,-0.6550293,0.88964844,0.13952637,0.34606934,-0.3446045,43
157.53174,-76.21765,-500,0.123046875,-0.60131836,0.9165039,0.13952637,0.34606934,-0.3446045,44
138.85498,-42.755127,-500,0.21850586,-0.53564453,0.94018555,0.13952637,0.34606934,-0.3446045,45
108.39844,-9.979248,-500,0.31079102,-0.45214844,0.9711914,0.13916016,0.33728027,-0.34387207,46
80.947876,11.077881,-500,0.40576172,-0.34204102,1.0061035,0.13916016,0.33728027,-0.34387207,47
62.789917,16.448975,-500,0.46972656,-0.24658203,1.0390625,0.13513184,0.33032227,-0.33215332,48
42.98401,22.964478,-499.8474,0.52075195,-0.14746094,1.0751953,0.13513184,0.33032227,-0.33215332,49
12.191772,27.96936,-437.6068,0.56469727,-0.03125,1.1037598,0.13513184,0.33032227,-0.33215332,50
-16.26587,31.89087,-376.75476,0.58325195,0.068603516,1.1325684,0.12634277,0.32336426,-0.32592773,51
-41.18347,39.031982,-313.1714,0.5839844,0.17114258,1.1530762,0.12634277,0.32336426,-0.32592773,52
-59.829712,44.525146,-219.39087,0.5883789,0.24633789,1.1689453,0.12194824,0.31604004,-0.328125,53
-74.67651,37.216187,-137.5885,0.61157227,0.32226562,1.182373,0.12194824,0.31604004,-0.328125,54
-72.34192,14.663696,-39.215088,0.64575195,0.3942871,1.1809082,0.12194824,0.31604004,-0.328125,55
-52.27661,-8.239746,91.81213,0.6828613,0.44555664,1.1699219,0.119018555,0.31201172,-0.32922363,56
-39.123535,-25.344849,186.75232,0.72924805,0.48388672,1.1560059,0.119018555,0.31201172,-0.32922363,57
-39.108276,-54.275513,290.66467,0.75683594,0.5090332,1.1855469,0.119384766,0.3112793,-0.3284912,58
-44.418335,-76.11084,378.25012,0.7314453,0.45751953,1.0725098,0.119384766,0.3112793,-0.3284912,59
-37.002563,-80.09338,440.84167,0.6953125,0.37670898,1.0056152,0.119384766,0.3112793,-0.3284912,60
-24.490356,-71.6095,499.6338,0.69311523,0.31323242,0.9321289,0.1274414,0.3149414,-0.33032227,61
-16.87622,-58.883667,499.9237,0.7050781,0.25610352,0.86816406,0.1274414,0.3149414,-0.33032227,62
-22.491455,-39.535522,499.9237,0.6940918,0.16503906,0.81469727,0.13293457,0.32702637,-0.328125,63
-24.810791,-8.178711,499.9237,0.6621094,0.040771484,0.78271484,0.13293457,0.32702637,-0.328125,64
-21.713257,29.144287,499.9237,0.60375977,-0.07543945,0.74072266,0.13293457,0.32702637,-0.328125,65
-15.655518,70.28198,499.9237,0.5180664,-0.21850586,0.7121582,0.13696289,0.33581543,-0.33691406,66
-4.8065186,112.38098,499.9237,0.39697266,-0.3474121,0.7116699,0.13696289,0.33581543,-0.33691406,67
8.31604,133.91113,499.9237,0.28125,-0.45922852,0.73999023,0.14465332,0.3519287,-0.35009766,68
27.633667,133.66699,499.9237,0.1809082,-0.54248047,0.78686523,0.14465332,0.3519287,-0.35009766,69
23.788452,130.90515,499.9237,0.0847168,-0.58691406,0.85717773,0.14465332,0.3519287,-0.35009766,70
3.4484863,132.09534,499.9237,0.014404297,-0.6208496,0.9213867,0.13366699,0.36328125,-0.3548584,71
-11.581421,133.95691,498.0011,-0.057617188,-0.6479492,0.9675293,0.13366699,0.36328125,-0.3548584,72
-15.716553,131.34766,455.41382,-0.12548828,-0.67456055,1.0073242,0.13183594,0.37939453,-0.36291504,73
-11.932373,114.76135,403.53394,-0.21044922,-0.7019043,1.0466309,0.13183594,0.37939453,-0.36291504,74
5.645752,93.87207,358.29163,-0.29516602,-0.7307129,1.0766602,0.13183594,0.37939453,-0.36291504,75
12.4053955,77.98767,298.81287,-0.36669922,-0.7458496,1.1154785,0.12487793,0.3852539,-0.36914062,76
2.4719238,60.150146,243.27087,-0.4025879,-0.7319336,1.166748,0.12487793,0.3852539,-0.36914062,77
-16.87622,45.88318,198.0133,-0.40234375,-0.6984863,1.2045898,0.11755371,0.3914795,-0.37609863,78
-37.841797,26.19934,154.953,-0.40161133,-0.6599121,1.220459,0.11755371,0.3914795,-0.37609863,79
-54.855347,13.35144,103.45459,-0.4074707,-0.64160156,1.2121582,0.11755371,0.3914795,-0.37609863,80
-67.52014,5.340576,58.441162,-0.4074707,-0.6274414,1.1872559,0.115722656,0.38928223,-0.38342285,81
-73.04382,-1.3275146,16.296387,-0.39282227,-0.61035156,1.1508789,0.115722656,0.38928223,-0.38342285,82
-74.72229,-8.834839,-33.325195,-0.37280273,-0.58569336,1.1013184,0.111328125,0.38452148,-0.37573242,83
-79.452515,-12.802124,-76.828,-0.31420898,-0.57177734,1.0554199,0.111328125,0.38452148,-0.37573242,84
-82.70264,-18.936157,-147.3999,-0.42236328,-0.5864258,1.0185547,0.111328125,0.38452148,-0.37573242,85
-74.00513,-41.21399,-238.51013,-0.49438477,-0.6225586,0.9980469,0.11828613,0.37902832,-0.37756348,86
-51.116943,-70.41931,-321.6858,-0.54956055,-0.6599121,0.9831543,0.11828613,0.37902832,-0.37756348,87
-26.687622,-101.42517,-430.58777,-0.5932617,-0.6940918,0.9707031,0.11828613,0.37902832,-0.37756348,88
-11.947632,-113.93738,-500,-0.6125488,-0.7363281,0.95458984,0.12158203,0.37023926,-0.37060547,89
-9.155273,-121.50574,-500,-0.5644531,-0.767334,0.9248047,0.12158203,0.37023926,-0.37060547,90
5.0201416,-127.99072,-500,-0.4572754,-0.79052734,0.8828125,0.12927246,0.3577881,-0.3647461,91
34.576416,-130.96619,-500,-0.31713867,-0.7910156,0.84594727,0.12927246,0.3577881,-0.3647461,92
57.632446,-129.65393,-500,-0.18164062,-0.767334,0.8261719,0.12927246,0.3577881,-0.3647461,93
90.0116,-126.327515,-500,-0.0390625,-0.7390137,0.82543945,0.13183594,0.34387207,-0.3552246,94
133.22449,-125.10681,-500,0.07324219,-0.7380371,0.8347168,0.13183594,0.34387207,-0.3552246,95
158.63037,-101.51672,-500,0.14648438,-0.7246094,0.87890625,0.13366699,0.33544922,-0.3482666,96
128.00598,-60.638428,-500,0.22631836,-0.67944336,0.87524414,0.13366699,0.33544922,-0.3482666,97
87.53967,-20.03479,-500,0.25830078,-0.5908203,0.9838867,0.13366699,0.3310547,-0.34240723,98
51.92566,12.771606,-500,0.4074707,-0.5004883,1.0117188,0.13146973,0.3310547,-0.34240723,99
22.949219,41.870117,-500,0.4885254,-0.39233398,1.0427246,0.13146973,0.3310547,-0.34240723,100
-4.196167,64.86511,-500,0.58862305,-0.23583984,1.0825195,0.12487793,0.32080078,-0.33251953,101
-31.524658,60.302734,-499.77112,0.6738281,-0.056884766,1.0651855,0.12487793,0.32080078,-0.33251953,102
-45.34912,40.802002,-388.35144,0.73876953,0.064697266,1.1538086,0.12487793,0.32080078,-0.33251953,103
-48.64502,19.348145,-254.5929,0.8017578,0.25952148,1.1696777,0.11791992,0.3112793,-0.32958984,104
-48.110962,-11.581421,-162.10938,0.84521484,0.3701172,1.1669922,0.11791992,0.3112793,-0.32958984,105
-42.69409,-43.762207,-66.04004,0.85253906,0.43530273,1.1450195,0.11352539,0.31018066,-0.32373047,106
-31.433105,-63.064575,41.18347,0.83862305,0.4494629,1.1169434,0.11352539,0.31018066,-0.32373047,107
-33.2489,-76.15662,113.31177,0.8232422,0.45776367,1.0935059,0.11352539,0.31018066,-0.32373047,108
-40.649414,-82.00073,197.78442,0.82543945,0.4638672,1.0683594,0.11828613,0.30871582,-0.32885742,109
-52.886963,-84.91516,307.47986,0.8508301,0.4777832,1.0292969,0.11828613,0.30871582,-0.32885742,110
-58.654785,-87.29553,393.08167,0.88183594,0.47729492,0.9819336,0.1237793,0.3076172,-0.3277588,111
-66.65039,-95.65735,492.82837,0.89575195,0.44848633,0.9182129,0.1237793,0.3076172,-0.3277588,112
-60.48584,-101.39465,499.9237,0.88720703,0.37402344,0.84716797,0.1237793,0.3076172,-0.3277588,113
-47.210693,-94.573975,499.9237,0.85302734,0.27246094,0.7705078,0.13110352,0.30908203,-0.32885742,114
-36.636353,-62.286377,499.9237,0.77612305,0.17236328,0.7089844,0.13110352,0.30908203,-0.32885742,115
-26.489258,-16.555786,499.9237,0.6611328,-0.051757812,0.67944336,0.13916016,0.32006836,-0.3284912,116
-18.798828,15.686035,499.9237,0.53027344,-0.1875,0.6750488,0.13916016,0.32006836,-0.3284912,117
-10.71167,56.045532,499.9237,0.39916992,-0.3371582,0.6850586,0.13916016,0.32006836,-0.3284912,118
-1.8157959,89.538574,499.9237,0.27172852,-0.44482422,0.7312012,0.14282227,0.33325195,-0.34020996,119
-4.3945312,111.6333,499.9237,0.1887207,-0.51660156,0.7973633,0.14282227,0.33325195,-0.34020996,120
-11.184692,143.7378,499.9237,0.011962891,-0.6340332,0.8828125,0.14135742,0.34643555,-0.3486328,122
-21.30127,147.09473,499.9237,-0.001220703,-0.70214844,0.92749023,0.14135742,0.34643555,-0.3486328,123
-76.06506,137.08496,447.96753,-0.25512695,-0.7529297,1.0551758,0.14025879,0.36071777,-0.35375977,125
-54.504395,132.9956,362.4878,-0.39379883,-0.7844238,1.1025391,0.13110352,0.37023926,-0.3577881,126
-17.227173,109.51233,277.42004,-0.4946289,-0.8034668,1.1467285,0.13110352,0.37023926,-0.3577881,127
23.544312,72.11304,206.28357,-0.55566406,-0.782959,1.1652832,0.13110352,0.37023926,-0.3577881,128
29.61731,43.762207,152.74048,-0.5715332,-0.7548828,1.1699219,0.12817383,0.37756348,-0.37390137,129
3.036499,30.044556,99.823,-0.5666504,-0.7233887,1.159668,0.12817383,0.37756348,-0.37390137,130
-24.810791,32.409668,38.33008,-0.5476074,-0.7019043,1.1328125,0.12597656,0.37609863,-0.3746338,131
-28.259277,32.165527,-16.113281,-0.52441406,-0.6833496,1.0993652,0.12597656,0.37609863,-0.3746338,132
-25.268555,27.389526,-62.11853,-0.5107422,-0.6660156,1.0566406,0.12597656,0.37609863,-0.3746338,133
-17.77649,23.117065,-129.4403,-0.5214844,-0.65844727,1.0041504,0.123046875,0.37573242,-0.37097168,134
-6.164551,18.52417,-195.9076,-0.5576172,-0.67285156,0.96875,0.123046875,0.37573242,-0.37097168,135
9.399414,5.9051514,-288.0249,-0.6179199,-0.7080078,0.951416,0.123046875,0.46472168,-0.36730957,136
25.512695,-13.092041,-417.4652,-0.6784668,-0.75927734,0.9453125,0.11975098,0.37097168,-0.36730957,137
32.333374,-28.35083,-498.5962,-0.69555664,-0.8093262,0.9482422,0.11975098,0.37097168,-0.36730957,138
40.46631,-49.89624,-500,-0.6291504,-0.84399414,0.9550781,0.12194824,0.36584473,-0.36547852,139
38.757324,-70.58716,-500,-0.501709,-0.86157227,0.9760742,0.12194824,0.36584473,-0.36547852,140
33.477783,-93.13965,-500,-0.36376953,-0.8562012,1.0092773,0.12194824,0.36584473,-0.3585205,141
31.814575,-104.019165,-500,-0.22143555,-0.8239746,1.0317383,0.12780762,0.35888672,-0.3585205,142
28.7323,-94.20776,-500,-0.071777344,-0.76660156,1.0505371,0.12780762,0.35888672,-0.3585205,143
23.19336,-75.07324,-500,0.043701172,-0.6916504,1.059082,0.12927246,0.34716797,-0.34680176,144
8.132935,-43.380737,-500,0.13452148,-0.60375977,1.0495605,0.12927246,0.34716797,-0.34680176,145
-15.50293,-2.7160645,-500,0.17260742,-0.54418945,1.0361328,0.12927246,0.33654785,-0.3446045,146
-54.031372,43.518066,-500,0.18481445,-0.48291016,1.0334473,0.12817383,0.33654785,-0.3446045,147
-93.46008,81.40564,-500,0.21972656,-0.41333008,1.0351562,0.12817383,0.33654785,-0.3446045,148
-113.17444,92.9718,-500,0.28466797,-0.37182617,1.0310059,0.11828613,0.32336426,-0.33581543,149
-116.57715,74.5697,-500,0.31298828,-0.21020508,1.0214844,0.11828613,0.32336426,-0.33581543,150
-83.89282,11.21521,-402.0996,0.50512695,0.003417969,1.0224609,0.10876465,0.31054688,-0.32922363,152
-78.75061,-15.914917,-345.2301,0.6398926,0.11376953,1.0131836,0.10876465,0.31054688,-0.32922363,153
-74.645996,-12.6953125,-277.03857,0.69628906,0.20507812,1.0048828,0.10437012,0.29882812,-0.3248291,154
-71.96045,1.8463135,-193.03894,0.7705078,0.29370117,0.9958496,0.10437012,0.29882812,-0.3248291,155
-79.10156,5.6610107,-110.04639,0.8388672,0.38354492,0.98217773,0.10437012,0.29882812,-0.3248291,156
-85.235596,1.9836426,-16.952515,0.8930664,0.45776367,0.9633789,0.10253906,0.29516602,-0.3284912,157
-84.68628,-5.844116,108.71887,0.9404297,0.50146484,0.9589844,0.10253906,0.29516602,-0.3284912,158
-75.97351,-26.550293,204.31519,0.9875488,0.55029297,0.954834,0.103271484,0.29003906,-0.32739258,159
-60.10437,-63.659668,309.84497,1.0214844,0.57836914,0.9243164,0.103271484,0.29003906,-0.32739258,160
-53.970337,-80.596924,431.77795,1.0080566,0.5397949,0.87158203,0.103271484,0.29003906,-0.32739258,161
-40.893555,-89.21814,497.65015,0.9628906,0.46923828,0.81152344,0.10510254,0.2878418,-0.3314209,162
-21.942139,-84.94568,499.9237,0.8803711,0.3713379,0.736084,0.10510254,0.2878418,-0.3314209,163
-0.64086914,-62.667847,499.9237,0.78222656,0.23608398,0.67749023,0.11608887,0.2944336,-0.3347168,164
22.323608,-23.391724,499.9237,0.67211914,0.095214844,0.6633301,0.11608887,0.2944336,-0.3347168,165
36.42273,10.925293,499.9237,0.6179199,0.004638672,0.6882324,0.11608887,0.2944336,-0.3347168,166
29.09851,44.509888,499.9237,0.58032227,-0.05859375,0.7270508,0.12890625,0.3050537,-0.33654785,167
6.149292,66.66565,499.9237,0.5234375,-0.13671875,0.77246094,0.12890625,0.3050537,-0.33654785,168
-8.071899,96.05408,499.9237,0.4272461,-0.1940918,0.8015137,0.13330078,0.31384277,-0.34423828,169
10.925293,119.53735,499.9237,0.30371094,-0.37402344,0.8195801,0.13330078,0.31384277,-0.34423828,170
37.30774,134.64355,499.9237,0.2084961,-0.46264648,0.8310547,0.13330078,0.31384277,-0.34423828,171
63.308716,143.28003,499.9237,0.18432617,-0.5227051,0.83862305,0.13366699,0.32739258,-0.34899902,172
86.4563,157.04346,499.9237,0.04736328,-0.57543945,0.86499023,0.13366699,0.32739258,-0.34899902,173
98.44971,158.63037,499.9237,-0.024658203,-0.6159668,0.8972168,0.13220215,0.34277344,-0.36694336,174
93.09387,160.55298,499.90845,-0.107910156,-0.64501953,0.9580078,0.13220215,0.34277344,-0.36694336,175
65.73486,157.83691,460.81543,-0.17163086,-0.6616211,1.0322266,0.13220215,0.34277344,-0.36694336,176
44.052124,149.3988,424.43848,-0.20678711,-0.6611328,1.1135254,0.12561035,0.35961914,-0.36621094,177
25.863647,129.31824,379.364,-0.22509766,-0.64501953,1.1877441,0.12561035,0.35961914,-0.36621094,178
-0.62561035,116.1499,329.77295,-0.28637695,-0.64501953,1.2272949,0.12011719,0.36730957,-0.3779297,179
-24.215698,98.54126,282.45544,-0.37329102,-0.670166,1.255127,0.12011719,0.36730957,-0.3779297,180
-35.27832,71.70105,212.46338,-0.4560547,-0.7001953,1.2675781,0.12011719,0.36730957,-0.3779297,181
-31.555176,35.949707,140.45715,-0.5114746,-0.7092285,1.2695312,0.1138916,0.368042,-0.38085938,182
-25.436401,7.217407,75.6073,-0.5241699,-0.7011719,1.2580566,0.1138916,0.368042,-0.38085938,183
-20.6604,-18.936157,12.420654,-0.51342773,-0.68188477,1.2358398,0.111694336,0.3717041,-0.38085938,184
-34.118652,-32.88269,-55.43518,-0.49951172,-0.65893555,1.2036133,0.111694336,0.3717041,-0.38085938,185
-59.73816,-40.893555,-132.91931,-0.5336914,-0.6594238,1.170166,0.111694336,0.3717041,-0.38085938,186
-70.35828,-55.984497,-238.54065,-0.64331055,-0.70288086,1.1472168,0.1138916,0.36730957,-0.3782959,187
-77.697754,-86.7157,-378.1891,-0.74072266,-0.7463379,1.1223145,0.1138916,0.36730957,-0.3782959,188
-70.8313,-116.119385,-466.6443,-0.7805176,-0.78393555,1.0900879,0.1138916,0.35888672,-0.3746338,189
-50.308228,-141.44897,-500,-0.67456055,-0.82958984,0.96533203,0.11975098,0.35888672,-0.3746338,191
-42.160034,-139.99939,-500,-0.46948242,-0.83984375,0.8984375,0.1274414,0.34094238,-0.36621094,192
-28.518677,-139.03809,-500,-0.33007812,-0.84472656,0.8442383,0.1274414,0.34094238,-0.36621094,193
-3.1585693,-135.49805,-500,-0.18725586,-0.8388672,0.81762695,0.12451172,0.33032227,-0.35925293,194
16.220093,-123.9624,-500,-0.07006836,-0.8227539,0.8156738,0.12451172,0.33032227,-0.35925293,195
14.99939,-93.170166,-500,0.055664062,-0.779541,0.8400879,0.12451172,0.33032227,-0.35925293,196
-6.0577393,-52.856445,-500,0.20141602,-0.70751953,0.87475586,0.12487793,0.3178711,-0.34973145,197
-35.491943,-9.231567,-500,0.31420898,-0.6191406,0.89941406,0.12487793,0.3178711,-0.34973145,198
-69.54956,43.930054,-500,0.4169922,-0.5124512,0.9177246,0.12487793,0.3178711,-0.34973145,199
-92.7124,85.02197,-500,0.49414062,-0.38232422,0.92700195,0.119018555,0.3050537,-0.3446045,200
-95.27588,97.24426,-500,0.5541992,-0.27124023,0.92871094,0.119018555,0.3050537,-0.3446045,201
-79.84924,96.2677,-500,0.6022949,-0.18334961,0.9470215,0.10510254,0.2944336,-0.33728027,202
-58.07495,87.72278,-500,0.6586914,-0.079833984,0.99121094,0.10510254,0.2944336,-0.33728027,203
-50.03357,57.235718,-481.43005,0.73461914,0.045654297,1.0361328,0.10510254,0.2944336,-0.33728027,204
-39.596558,22.872925,-417.9077,0.7878418,0.15844727,1.060791,0.092285156,0.28564453,-0.33288574,205
-32.470703,10.620117,-326.69067,0.8417969,0.24487305,1.0703125,0.092285156,0.28564453,-0.33288574,206
-34.866333,1.5258789,-247.90955,0.904541,0.33740234,1.1230469,0.088256836,0.28125,-0.33068848,207
-43.777466,-19.943237,-157.50122,0.95751953,0.43188477,1.0285645,0.088256836,0.28125,-0.33068848,208
-47.912598,-35.614014,-65.29236,0.9777832,0.4663086,0.9868164,0.088256836,0.28125,-0.33068848,209
-41.046143,-48.568726,9.140015,0.9719238,0.46850586,0.9494629,0.08679199,0.2779541,-0.32592773,210
-26.33667,-61.09619,69.58008,0.94311523,0.46362305,0.91503906,0.08679199,0.2779541,-0.32592773,211
-10.284424,-69.71741,132.67517,0.89404297,0.44482422,0.8859863,0.087524414,0.274292,-0.3248291,212
29.724121,-102.98157,366.2262,0.82006836,0.42993164,0.8859863,0.09338379,0.27941895,-0.32666016,215
41.885376,-106.170654,465.5304,0.8901367,0.4663086,0.88256836,0.09338379,0.27941895,-0.32666016,216
35.583496,-120.11719,499.9237,0.9411621,0.4831543,0.8544922,0.10473633,0.28198242,-0.33288574,217
24.154663,-125.28992,499.9237,0.92163086,0.3918457,0.7915039,0.10473633,0.28198242,-0.33288574,218
29.586792,-112.4115,499.9237,0.82788086,0.22070312,0.70996094,0.10473633,0.28198242,-0.33288574,219
56.30493,-74.73755,499.9237,0.6965332,0.024169922,0.63134766,0.115356445,0.28857422,-0.33654785,220
92.95654,-17.01355,499.9237,0.5515137,-0.16064453,0.5969238,0.115356445,0.28857422,-0.33654785,221
116.83655,24.230957,499.9237,0.42236328,-0.29125977,0.59228516,0.13146973,0.3017578,-0.34423828,222
126.60217,86.99036,499.9237,0.29907227,-0.43286133,0.61206055,0.13146973,0.3017578,-0.34423828,223
116.56189,148.5138,499.9237,0.22460938,-0.5427246,0.68237305,0.13146973,0.3017578,-0.34423828,224
86.79199,170.36438,499.9237,0.19580078,-0.58618164,0.7470703,0.13330078,0.3215332,-0.35412598,225
54.534912,181.06079,499.9237,0.14355469,-0.6237793,0.8066406,0.13330078,0.3215332,-0.35412598,226
20.584106,187.91199,499.9237,0.0847168,-0.6777344,0.88549805,0.1303711,0.3380127,-0.36108398,227
21.652222,172.86682,499.9237,0.032714844,-0.6965332,0.9399414,0.1303711,0.3380127,-0.36108398,228
55.740356,148.72742,499.9237,-0.045898438,-0.70947266,0.97924805,0.1303711,0.3380127,-0.36108398,229
97.351074,120.62073,455.78003,-0.14672852,-0.74121094,1.0029297,0.12524414,0.3544922,-0.37243652,230
123.687744,97.29004,409.53064,-0.2734375,-0.77856445,1.0327148,0.12524414,0.3544922,-0.37243652,231
133.74329,67.03186,362.18262,-0.33422852,-0.7824707,1.0871582,0.12084961,0.36694336,-0.3717041,232
114.471436,38.45215,314.9414,-0.36767578,-0.75097656,1.1425781,0.12084961,0.36694336,-0.3717041,233
74.60022,36.43799,257.1869,-0.4013672,-0.7363281,1.2004395,0.12084961,0.36694336,-0.3717041,234
34.91211,41.519165,187.4237,-0.44384766,-0.74243164,1.2460938,0.115722656,0.37902832,-0.3779297,235
2.8533936,36.621094,121.88721,-0.4885254,-0.7590332,1.2731934,0.115722656,0.37902832,-0.3779297,236
-11.611938,26.046753,69.107056,-0.5065918,-0.76416016,1.2729492,0.1138916,0.38452148,-0.37390137,237
-6.790161,1.1749268,13.702393,-0.51000977,-0.7636719,1.2568359,0.1138916,0.38452148,-0.37390137,238
4.547119,-19.104004,-62.286377,-0.52441406,-0.7597656,1.2277832,0.1138916,0.38452148,-0.37390137,239
-9.567261,-25.268555,-126.571655,-0.5698242,-0.7614746,1.1889648,0.11242676,0.3881836,-0.38049316,240
-31.585693,-31.646729,-210.40344,-0.64697266,-0.78930664,1.1501465,0.11242676,0.3881836,-0.38049316,241
-38.864136,-54.901123,-320.09888,-0.6953125,-0.82421875,1.1147461,0.11755371,0.3786621,-0.3687744,242
-36.712646,-77.89612,-404.8767,-0.7233887,-0.85913086,1.0708008,0.11755371,0.3786621,-0.3687744,243
-29.922485,-91.73584,-499.8169,-0.72265625,-0.90185547,1.0161133,0.11755371,0.3786621,-0.3687744,244
-24.429321,-96.61865,-500,-0.65405273,-0.9316406,0.96606445,0.1204834,0.37060547,-0.36950684,245
-21.606445,-100.02136,-500,-0.5239258,-0.9343262,0.91552734,0.1204834,0.37060547,-0.36950684,246
-16.052246,-104.41589,-500,-0.3569336,-0.90844727,0.8796387,0.1204834,0.37060547,-0.35595703,247
-1.8157959,-102.96631,-500,-0.16455078,-0.86035156,0.8503418,0.12927246,0.35668945,-0.35595703,248
4.3945312,-94.7113,-500,-0.010009766,-0.79711914,0.83203125,0.12927246,0.35668945,-0.35595703,249
2.243042,-77.51465,-500,0.1081543,-0.7192383,0.8322754,0.1307373,0.3446045,-0.35083008,250
-8.392334,-47.790527,-500,0.19433594,-0.6472168,0.85009766,0.1307373,0.3446045,-0.35083008,251
-34.835815,-13.092041,-500,0.2536621,-0.5776367,0.8874512,0.1307373,0.3446045,-0.35083008,252
-65.55176,19.989014,-500,0.2524414,-0.49829102,0.9316406,0.12780762,0.33215332,-0.34057617,253
-86.30371,44.174194,-500,0.37817383,-0.40722656,0.9782715,0.12780762,0.33215332,-0.34057617,254
-93.53638,51.589966,-500,0.45239258,-0.32080078,1.0131836,0.12158203,0.32080078,-0.3380127,255
-92.39197,50.445557,-500,0.5498047,-0.22192383,1.0505371,0.12158203,0.32080078,-0.3380127,0
-95.581055,54.79431,-487.2284,0.6711426,-0.095458984,1.1044922,0.12158203,0.31384277,-0.3310547,1
-106.12488,59.37195,-430.19104,0.8249512,0.08105469,1.1516113,0.11352539,0.31384277,-0.3310547,2
-121.73462,58.807373,-350.87585,0.94311523,0.28051758,1.1655273,0.11352539,0.31384277,-0.3310547,3
-131.40869,65.56702,-220.15381,1.0720215,0.42944336,1.1501465,0.10437012,0.3013916,-0.32666016,4
-128.12805,52.246094,-83.343506,1.1870117,0.56884766,1.0966797,0.10437012,0.3013916,-0.32666016,5
-114.730835,10.1623535,42.32788,1.2424316,0.6628418,1.0197754,0.10437012,0.3013916,-0.32666016,6
-90.37781,-24.032593,161.95679,1.1960449,0.63964844,0.9304199,0.09667969,0.2911377,-0.32885742,7
-56.96106,-50.109863,245.77332,1.0930176,0.55981445,0.8647461,0.09667969,0.2911377,-0.32885742,8
-18.753052,-83.19092,305.43518,0.97094727,0.46850586,0.82592773,0.10107422,0.28857422,-0.32629395,9
17.669678,-102.79846,373.8098,0.8959961,0.40014648,0.81347656,0.10107422,0.28857422,-0.32629395,10
37.368774,-119.33899,434.21936,0.8774414,0.38061523,0.8198242,0.10107422,0.28857422,-0.32629395,11
27.96936,-133.78906,499.9237,0.87280273,0.36669922,0.8305664,0.111694336,0.29077148,-0.3343506,12
12.023926,-121.30737,499.9237,0.8642578,0.29736328,0.8203125,0.111694336,0.29077148,-0.3343506,13
-3.7384033,-101.68457,499.9237,0.8215332,0.21020508,0.7800293,0.12451172,0.29626465,-0.33544922,14
-14.404297,-56.30493,499.9237,0.75,0.0847168,0.7128906,0.12451172,0.29626465,-0.33544922,15
-9.277344,9.002686,499.9237,0.6291504,-0.076171875,0.66015625,0.12451172,0.29626465,-0.33544922,16
14.343262,68.29834,499.9237,0.5205078,-0.21484375,0.6398926,0.13586426,0.30908203,-0.33874512,17
45.806885,114.27307,499.9237,0.43798828,-0.25170898,0.64990234,0.13586426,0.30908203,-0.33874512,18
71.97571,139.83154,499.9237,0.38354492,-0.37695312,0.69311523,0.14025879,0.3248291,-0.3482666,19
67.38281,151.6571,499.9237,0.34814453,-0.4321289,0.75439453,0.14025879,0.3248291,-0.3482666,20
51.361084,160.88867,499.9237,0.30297852,-0.5131836,0.8227539,0.14025879,0.3248291,-0.3482666,21
33.615112,169.14368,499.9237,0.2163086,-0.61376953,0.8991699,0.14428711,0.34020996,-0.35339355,22
15.335083,174.95728,499.9237,0.07348633,-0.7211914,0.9711914,0.14428711,0.34020996,-0.35339355,23
14.572144,161.7279,499.9237,-0.08227539,-0.82543945,1.0512695,0.13220215,0.35559082,-0.3647461,24
28.320312,125.71716,475.90637,-0.36376953,-0.9206543,1.1398926,0.13220215,0.35559082,-0.3647461,25
32.211304,86.4563,390.59448,-0.51342773,-0.9851074,1.2180176,0.13220215,0.35559082,-0.3647461,26
19.714355,42.19055,279.7699,-0.70825195,-1.012207,1.2946777,0.12634277,0.37060547,-0.37280273,27
5.0811768,-4.8675537,160.43091,-0.78149414,-1.0080566,1.3398438,0.12634277,0.37060547,-0.37280273,28
-5.3710938,-35.079956,67.718506,-0.79589844,-0.998291,1.3427734,0.12634277,0.37353516,-0.37280273,29
-17.120361,-53.146362,-21.728516,-0.7624512,-0.97387695,1.2993164,0.12634277,0.37353516,-0.37280273,30
-22.68982,-65.73486,-113.00659,-0.748291,-0.9394531,1.2163086,0.12634277,0.37353516,-0.37280273,31
-7.4768066,-70.17517,-188.26294,-0.80566406,-0.94555664,1.1486816,0.12561035,0.3687744,-0.37390137,32
1.1291504,-78.59802,-294.37256,-0.8857422,-0.9890137,1.1035156,0.12561035,0.3687744,-0.37390137,33
-5.8898926,-83.77075,-410.64453,-0.9458008,-1.0119629,1.0727539,0.13586426,0.36291504,-0.37390137,34
-9.536743,-87.70752,-498.87085,-0.9277344,-1.0090332,1.045166,0.13586426,0.36291504,-0.37390137,35
14.3585205,-102.752686,-500,-0.8408203,-0.99902344,1.0004883,0.13586426,0.36291504,-0.37390137,36
50.91858,-110.36682,-500,-0.73706055,-0.9921875,0.9550781,0.13659668,0.35559082,-0.37023926,37
80.24597,-113.723755,-500,-0.5983887,-0.98706055,0.9206543,0.13659668,0.35559082,-0.37023926,38
119.99512,-123.15369,-500,-0.39111328,-0.9526367,0.8845215,0.13659668,0.34350586,-0.35668945,39
158.6914,-123.45886,-500,-0.24047852,-0.88964844,0.8647461,0.140625,0.34350586,-0.35668945,40
165.90881,-105.19409,-500,-0.012695313,-0.8220215,0.8557129,0.140625,0.34350586,-0.35668945,41
100.66223,-3.692627,-500,0.25463867,-0.70532227,0.85961914,0.14465332,0.3314209,-0.34570312,43
-13.671875,159.1034,-500,0.5554199,-0.41333008,0.9213867,0.13696289,0.3218994,-0.33728027,46
-45.059204,150.93994,-500,0.7019043,-0.24267578,0.9626465,0.12487793,0.31237793,-0.33764648,47
-64.78882,149.70398,-434.1278,0.751709,-0.026611328,1.0004883,0.12487793,0.31237793,-0.33764648,48
-41.35132,115.17334,-329.2694,0.90649414,0.18139648,1.0429688,0.1138916,0.3050537,-0.33618164,49
-57.891846,74.63074,-229.90417,0.9868164,0.30322266,1.0825195,0.1138916,0.3050537,-0.33618164,50
-74.523926,61.553955,-117.752075,1.0397949,0.4345703,1.1142578,0.1138916,0.3050537,-0.33618164,51
-74.157715,18.829346,-21.42334,1.0583496,0.5168457,1.0949707,0.10510254,0.29882812,-0.3347168,52
-50.994873,0.15258789,61.645508,1.0175781,0.51831055,1.0622559,0.10510254,0.29882812,-0.3347168,53
-44.08264,-16.235352,131.8512,0.9746094,0.49389648,1.0283203,0.10510254,0.29882812,-0.3347168,54
-42.19055,-36.392212,195.63293,0.9316406,0.46728516,1.0004883,0.10876465,0.29663086,-0.33581543,55
-32.546997,-45.776367,290.81726,0.91748047,0.45214844,0.9748535,0.10876465,0.29663086,-0.33581543,56
