GX,GY,GZ,AX,AY,AZ,MX,MY,MZ,TS
0.44250488,2.9296875,-0.21362305,-0.9355469,0.109375,0.32788086,0.060791016,-0.5562744,-0.18237305,174
0.36621094,1.5563965,1.0375977,-0.9277344,0.11206055,0.32739258,0.064086914,-0.5592041,-0.1809082,175
0.74768066,-0.2593994,0.9613037,-0.92089844,0.115478516,0.32763672,0.064086914,-0.5592041,-0.1809082,176
1.1291504,-1.9226074,0.8544922,-0.9213867,0.114746094,0.32885742,0.064086914,-0.5592041,-0.1809082,177
1.8005371,-1.8463135,0.7019043,-0.9260254,0.111328125,0.33081055,0.06335449,-0.5551758,-0.17980957,178
1.2512207,0.1373291,0.5340576,-0.93188477,0.11035156,0.33154297,0.06335449,-0.5551758,-0.17980957,179
1.9073486,2.090454,-0.36621094,-0.9399414,0.10986328,0.33203125,0.06335449,-0.55737305,-0.17834473,180
1.373291,5.126953,-0.16784668,-0.94555664,0.1105957,0.33325195,0.06335449,-0.55737305,-0.17834473,181
1.4343262,5.4016113,-1.5716553,-0.94799805,0.111816406,0.33251953,0.06335449,-0.5592041,-0.1809082,182
1.4953613,4.257202,-1.3275146,-0.94384766,0.111083984,0.33276367,0.061157227,-0.5592041,-0.1809082,183
0.9613037,3.2958984,-0.91552734,-0.99975586,0.11206055,0.33203125,0.061157227,-0.5592041,-0.1809082,184
0.8392334,2.9754639,-0.62561035,-0.93115234,0.11328125,0.33129883,0.060058594,-0.55810547,-0.17871094,185
1.5411377,2.1362305,-0.579834,-0.9265137,0.11303711,0.3310547,0.060058594,-0.55810547,-0.17871094,186
1.0986328,1.8463135,-0.2746582,-0.9230957,0.11035156,0.33007812,0.061523438,-0.5559082,-0.18017578,187
0.90026855,2.8076172,-0.1373291,-0.9226074,0.10864258,0.3317871,0.061523438,-0.5559082,-0.18017578,188
1.1138916,3.6010742,-0.33569336,-0.9243164,0.10668945,0.33203125,0.061523438,-0.5559082,-0.18017578,189
0.7171631,4.333496,-0.6713867,-0.92749023,0.10522461,0.3310547,0.061523438,-0.5595703,-0.18127441,190
1.3122559,4.058838,-0.7019043,-0.92993164,0.10449219,0.3293457,0.061523438,-0.5595703,-0.18127441,191
1.449585,3.4332275,-0.289917,-0.9304199,0.10595703,0.32788086,0.060424805,-0.55407715,-0.17834473,192
1.876831,2.5024414,0.061035156,-0.92871094,0.107910156,0.3269043,0.060424805,-0.55407715,-0.17834473,193
1.8920898,2.456665,0.61035156,-0.9279785,0.1105957,0.32763672,0.060424805,-0.55407715,-0.17834473,194
1.953125,2.5024414,0.7171631,-0.92626953,0.11230469,0.32983398,0.06298828,-0.5559082,-0.18054199,195
1.7242432,3.4484863,0.5340576,-0.9238281,0.11279297,0.32861328,0.06298828,-0.5559082,-0.18054199,196
1.4648438,4.0130615,0.7171631,-0.92407227,0.11303711,0.328125,0.060791016,-0.55444336,-0.18310547,197
1.5563965,3.8757324,1.9226074,-0.92456055,0.111572266,0.33032227,0.060791016,-0.55444336,-0.18310547,198
1.3122559,5.1879883,2.0599365,-0.92626953,0.10986328,0.33496094,0.060791016,-0.55444336,-0.18310547,199
1.4648438,4.501343,1.7089844,-0.92578125,0.10864258,0.33642578,0.06188965,-0.5566406,-0.18237305,200
1.6326904,4.7454834,2.090454,-0.9226074,0.10913086,0.33544922,0.06188965,-0.5566406,-0.18237305,201
2.166748,3.2196045,2.1209717,-0.92089844,0.1081543,0.33496094,0.06298828,-0.55737305,-0.17907715,202
1.9073486,4.3029785,2.4108887,-0.92211914,0.1081543,0.33520508,0.06298828,-0.55737305,-0.17907715,203
2.3345947,5.3100586,2.1972656,-0.9243164,0.10864258,0.33276367,0.06298828,-0.55737305,-0.1809082,204
2.1972656,5.630493,2.3651123,-0.9250488,0.107666016,0.33129883,0.057861328,-0.55810547,-0.1809082,205
2.0446777,5.706787,2.532959,-0.9226074,0.107177734,0.33032227,0.057861328,-0.55810547,-0.1809082,206
1.9683838,3.9367676,1.9989014,-0.9206543,0.10571289,0.3310547,0.05895996,-0.55444336,-0.18054199,207
2.0599365,1.663208,1.8157959,-0.9194336,0.10424805,0.3330078,0.05895996,-0.55444336,-0.18054199,208
1.4801025,0.8544922,2.380371,-0.92041016,0.10424805,0.33422852,0.06188965,-0.5562744,-0.1809082,209
1.0375977,0.74768066,2.7923584,-0.9226074,0.10571289,0.33374023,0.06188965,-0.5562744,-0.1809082,210
1.2359619,1.876831,2.243042,-0.9265137,0.107666016,0.33154297,0.06188965,-0.5562744,-0.1809082,211
1.083374,1.876831,1.2664795,-0.93237305,0.11035156,0.32788086,0.057861328,-0.55444336,-0.18457031,212
0.2746582,2.1820068,2.0751953,-0.93115234,0.111816406,0.32714844,0.057861328,-0.55444336,-0.18457031,213
-0.16784668,2.7160645,1.6326904,-0.9243164,0.11279297,0.32763672,0.05859375,-0.55444336,-0.18237305,214
-0.289917,2.166748,2.7770996,-0.91625977,0.11279297,0.32910156,0.05859375,-0.55444336,-0.18237305,215
0.79345703,1.7700195,2.2735596,-0.91796875,0.11206055,0.33129883,0.05859375,-0.55444336,-0.18237305,216
0.5340576,2.7618408,1.5716553,-0.92333984,0.107177734,0.33276367,0.05822754,-0.55114746,-0.18017578,217
3.8604736,3.0670166,1.3122559,-0.9291992,0.103027344,0.3310547,0.05822754,-0.55114746,-0.18017578,218
0.16784668,2.5939941,1.3580322,-0.9289551,0.1027832,0.32788086,0.06225586,-0.5548096,-0.17944336,219
0.5493164,0.091552734,1.9073486,-0.9272461,0.10424805,0.32641602,0.06225586,-0.5548096,-0.17944336,220
1.5563965,-1.953125,2.532959,-0.9272461,0.10595703,0.3269043,0.06225586,-0.5548096,-0.17944336,221
2.5787354,-2.029419,2.8839111,-0.93066406,0.107666016,0.32763672,0.060791016,-0.55371094,-0.18054199,222
3.8146973,-1.0070801,3.1433105,-0.93603516,0.109375,0.32714844,0.060791016,-0.55371094,-0.18054199,223
3.6468506,-0.16784668,3.0517578,-0.9382324,0.10888672,0.3269043,0.059326172,-0.55407715,-0.17871094,224
3.8604736,0.39672852,3.616333,-0.93652344,0.11035156,0.328125,0.059326172,-0.55407715,-0.17871094,225
4.0283203,-0.5340576,3.753662,-0.9370117,0.11206055,0.3310547,0.059326172,-0.55407715,-0.1776123,226
4.0130615,-0.76293945,3.2653809,-0.94018555,0.111816406,0.33618164,0.060424805,-0.5482178,-0.1776123,227
4.0130615,3.7384033,3.0212402,-0.94311523,0.10961914,0.34106445,0.060424805,-0.5482178,-0.1776123,228
3.250122,1.1138916,2.9144287,-0.94384766,0.10644531,0.34423828,0.06628418,-0.5518799,-0.17614746,229
3.1280518,1.0528564,1.9989014,-0.9436035,0.10449219,0.34423828,0.06628418,-0.5518799,-0.17614746,230
2.7923584,0.6866455,1.0681152,-0.94262695,0.10107422,0.34179688,0.061523438,-0.5526123,-0.17028809,231
1.373291,0.8544922,0.30517578,-0.9428711,0.09716797,0.33862305,0.061523438,-0.5526123,-0.17028809,232
0.579834,1.2512207,0.36621094,-0.94018555,0.095458984,0.33398438,0.061523438,-0.5526123,-0.17028809,233
0.4119873,1.663208,-0.24414062,-0.9379883,0.09472656,0.3310547,0.064819336,-0.5548096,-0.17651367,234
-0.22888184,1.5716553,-0.5340576,-0.93652344,0.09033203,0.33276367,0.064819336,-0.5548096,-0.17651367,235
-0.8087158,1.1138916,0.1373291,-0.93530273,0.08496094,0.3359375,0.06298828,-0.5493164,-0.17687988,236
-1.6784668,1.4648438,-0.30517578,-0.93652344,0.080566406,0.33935547,0.06298828,-0.5493164,-0.17687988,237
-1.4190674,1.953125,-1.5258789,-0.9440918,0.076171875,0.34057617,0.06298828,-0.5493164,-0.17687988,238
-2.0599365,3.9520264,-1.9226074,-0.9506836,0.07421875,0.33911133,0.061157227,-0.5522461,-0.17614746,239
-2.1972656,5.5236816,-2.9449463,-0.95336914,0.07495117,0.33740234,0.061157227,-0.5522461,-0.17614746,240
-1.7700195,5.554199,-3.540039,-0.9536133,0.0769043,0.33422852,0.06188965,-0.5526123,-0.1772461,241
-1.6784668,6.0272217,-3.6010742,-0.9536133,0.0793457,0.3322754,0.06188965,-0.5526123,-0.1772461,242
-0.9460449,6.866455,-3.5247803,-0.95043945,0.08203125,0.32788086,0.06188965,-0.5526123,-0.1772461,243
-1.083374,6.4697266,-3.2043457,-0.9433594,0.08520508,0.32348633,0.06335449,-0.55407715,-0.17651367,244
-1.8615723,7.385254,-2.9907227,-0.93237305,0.09033203,0.32177734,0.06335449,-0.55407715,-0.17651367,245
-1.5563965,6.3171387,-2.746582,-0.9238281,0.09375,0.32226562,0.060791016,-0.5522461,-0.1739502,246
-1.6937256,3.9367676,-3.3874512,-0.91918945,0.0949707,0.3227539,0.060791016,-0.5522461,-0.1739502,247
-1.5563965,2.9754639,-2.6855469,-0.91748047,0.095947266,0.3232422,0.060791016,-0.5522461,-0.1739502,248
-1.9378662,2.4108887,-2.4719238,-0.9189453,0.09887695,0.32299805,0.06262207,-0.55444336,-0.17541504,249
-1.953125,3.2653809,-1.9073486,-0.9189453,0.10473633,0.32202148,0.06262207,-0.55444336,-0.17541504,250
-2.7618408,2.822876,-1.3580322,-0.91625977,0.1105957,0.32299805,0.05859375,-0.55700684,-0.17834473,251
-3.250122,1.1291504,0.16784668,-0.9128418,0.1171875,0.32641602,0.05859375,-0.55700684,-0.17834473,252
-3.9672852,-1.0375977,0.579834,-0.9123535,0.122558594,0.33081055,0.05859375,-0.5588379,-0.18017578,253
-5.264282,-2.7008057,2.6245117,-0.9082031,0.12524414,0.34179688,0.060058594,-0.5588379,-0.18017578,254
-6.3476562,-6.866455,3.112793,-0.90527344,0.12915039,0.35791016,0.060058594,-0.5588379,-0.18017578,255
-8.4991455,-11.505127,3.0670166,-0.9050293,0.12939453,0.37451172,0.060424805,-0.5551758,-0.1776123,0
-11.444092,-17.745972,5.630493,-0.9038086,0.12890625,0.39379883,0.060424805,-0.5551758,-0.1776123,1
-14.6484375,-24.276733,8.468628,-0.8955078,0.12963867,0.4099121,0.059692383,-0.55114746,-0.17321777,2
-15.869141,-34.40857,8.666992,-0.88549805,0.1352539,0.4177246,0.059692383,-0.55114746,-0.17321777,3
-15.640259,-46.99707,10.101318,-0.88256836,0.1381836,0.4111328,0.059692383,-0.55114746,-0.17321777,4
-15.304565,-55.877686,12.557983,-0.88549805,0.13598633,0.3930664,0.05895996,-0.55700684,-0.17504883,5
-16.311646,-59.692383,16.220093,-0.8930664,0.13232422,0.36791992,0.05895996,-0.55700684,-0.17504883,6
-18.585205,-51.620483,17.745972,-0.9135742,0.18652344,0.34350586,0.06665039,-0.55773926,-0.1743164,7
-19.760132,-36.483765,18.005371,-0.9460449,0.11621094,0.3256836,0.06665039,-0.55773926,-0.1743164,8
-20.950317,-19.16504,14.984131,-0.9699707,0.1105957,0.30664062,0.06665039,-0.55773926,-0.1743164,9
-21.209717,1.449585,11.33728,-0.9909668,0.103759766,0.28833008,0.068115234,-0.55371094,-0.17285156,10
-21.331787,14.556885,10.620117,-1.0046387,0.08959961,0.28393555,0.068115234,-0.55371094,-0.17285156,11
-22.201538,25.756836,11.978149,-0.98217773,0.07910156,0.29174805,0.06555176,-0.5551758,-0.17248535,12
-23.727417,28.121948,12.313843,-0.94873047,0.079589844,0.3095703,0.06555176,-0.5551758,-0.17248535,13
-22.781372,21.011353,13.305664,-0.92163086,0.08227539,0.32788086,0.06555176,-0.5551758,-0.17248535,14
-22.93396,9.735107,16.662598,-0.89697266,0.0793457,0.3383789,0.06665039,-0.5533447,-0.17578125,15
-23.05603,0.5493164,15.701294,-0.88256836,0.080078125,0.33789062,0.06665039,-0.5533447,-0.17578125,16
-23.986816,-4.8980713,20.568848,-0.88623047,0.080078125,0.33203125,0.0670166,-0.55371094,-0.17248535,17
-24.70398,-5.1727295,21.911621,-0.89404297,0.07739258,0.32470703,0.0670166,-0.55371094,-0.17248535,18
-25.344849,-1.0528564,21.575928,-0.9025879,0.07763672,0.3161621,0.06774902,-0.55700684,-0.1739502,19
-26.07727,7.461548,20.401001,-0.91796875,0.07495117,0.3083496,0.06774902,-0.55700684,-0.1739502,20
-26.931763,15.869141,20.9198,-0.9338379,0.0715332,0.30395508,0.06774902,-0.55700684,-0.1739502,21
-27.175903,25.283813,20.965576,-0.93847656,0.0715332,0.3005371,0.0670166,-0.55700684,-0.17211914,22
-26.123047,34.744263,22.30835,-0.93359375,0.07446289,0.30200195,0.0670166,-0.55700684,-0.17211914,23
-26.229858,42.58728,24.169922,-0.9187012,0.0793457,0.30810547,0.06298828,-0.5566406,-0.17248535,24
-25.787354,49.1333,26.96228,-0.9025879,0.08300781,0.32006836,0.06298828,-0.5566406,-0.17248535,25
-26.412964,50.125122,29.73938,-0.89160156,0.083740234,0.32861328,0.06298828,-0.5566406,-0.17248535,26
-26.062012,44.75403,31.12793,-0.8845215,0.083496094,0.3334961,0.059692383,-0.55700684,-0.17468262,27
-26.245117,37.67395,34.65271,-0.8742676,0.08154297,0.33740234,0.059692383,-0.55700684,-0.17468262,28
-26.2146,30.715942,39.67285,-0.8605957,0.080078125,0.3371582,0.06555176,-0.5559082,-0.17541504,29
-27.816772,25.421143,44.433594,-0.85009766,0.079589844,0.33154297,0.06555176,-0.5559082,-0.17541504,30
-28.518677,21.713257,47.576904,-0.85424805,0.07788086,0.31860352,0.06555176,-0.5559082,-0.17541504,31
-30.776978,21.835327,50.338745,-0.8630371,0.072509766,0.3100586,0.06262207,-0.5562744,-0.17797852,32
-32.821655,25.32959,51.696777,-0.87280273,0.064208984,0.31103516,0.06262207,-0.5562744,-0.17797852,33
-35.461426,28.427124,50.78125,-0.88916016,0.05126953,0.31591797,0.060791016,-0.5559082,-0.17138672,34
-38.101196,34.75952,51.78833,-0.9030762,0.040283203,0.32592773,0.060791016,-0.5559082,-0.17138672,35
-40.31372,38.2843,51.208496,-0.91430664,0.032226562,0.33666992,0.060791016,-0.5559082,-0.17138672,36
-41.625977,36.743164,50.91858,-0.91552734,0.025634766,0.34643555,0.064086914,-0.55371094,-0.17797852,37
-42.44995,31.570435,51.80359,-0.90771484,0.025634766,0.35302734,0.064086914,-0.55371094,-0.17797852,38
-41.870117,21.392822,51.51367,-0.90112305,0.029296875,0.3544922,0.060424805,-0.5522461,-0.17797852,39
-40.69519,12.10022,52.65808,-0.89624023,0.03149414,0.35083008,0.060424805,-0.5522461,-0.17797852,40
-39.352417,3.9215088,54.733276,-0.8898926,0.034423828,0.3425293,0.060424805,-0.5551758,-0.17834473,41
-38.009644,-3.5552979,56.09131,-0.8857422,0.040283203,0.33374023,0.057495117,-0.5551758,-0.17834473,42
-36.30066,-9.246826,56.167603,-0.8876953,0.045166016,0.3269043,0.057495117,-0.5551758,-0.17834473,43
-34.25598,-14.877319,56.06079,-0.8967285,0.044921875,0.3227539,0.05859375,-0.5515137,-0.17614746,44
-32.65381,-14.877319,56.6864,-0.9025879,0.041503906,0.31884766,0.05859375,-0.5515137,-0.17614746,45
-31.936646,-11.672974,58.776855,-0.9055176,0.03955078,0.31298828,0.059326172,-0.5526123,-0.17687988,46
-32.546997,-7.1105957,58.97522,-0.9133301,0.036132812,0.3095703,0.059326172,-0.5526123,-0.17687988,47
-33.14209,4.180908,56.915283,-0.9370117,0.025146484,0.30615234,0.059326172,-0.5526123,-0.17687988,48
-33.172607,11.535645,56.900024,-0.9482422,0.013427734,0.3046875,0.05895996,-0.5515137,-0.17797852,49
-32.424927,17.089844,57.800293,-0.94091797,0.006591797,0.30419922,0.05895996,-0.5515137,-0.17797852,50
-32.165527,17.51709,58.85315,-0.92407227,0.00390625,0.30419922,0.060058594,-0.55114746,-0.17797852,51
-30.62439,12.34436,57.58667,-0.9199219,0.0007324219,0.30371094,0.060058594,-0.55114746,-0.17797852,52
-28.823853,4.6691895,57.739258,-0.9213867,-0.006591797,0.30200195,0.060058594,-0.55114746,-0.17797852,53
-26.504517,-7.736206,57.357788,-0.9187012,-0.0126953125,0.2980957,0.06262207,-0.5515137,-0.17797852,54
-22.140503,-20.904541,57.937622,-0.9069824,-0.017089844,0.28857422,0.06262207,-0.5515137,-0.17797852,55
-23.025513,-29.388428,58.807373,-0.90625,-0.020019531,0.27490234,0.06262207,-0.54711914,-0.1776123,56
-16.830444,-32.88269,56.625366,-0.9223633,-0.025878906,0.26416016,0.06262207,-0.54711914,-0.1776123,57
-15.350342,-29.99878,53.93982,-0.95092773,-0.037109375,0.26098633,0.06262207,-0.54711914,-0.1776123,58
-14.602661,-18.875122,50.750732,-0.9863281,-0.047607422,0.26220703,0.061523438,-0.54711914,-0.17175293,59
-14.419556,-4.623413,46.24939,-1.0192871,-0.057617188,0.265625,0.061523438,-0.54711914,-0.17175293,60
-13.977051,9.292603,46.813965,-1.0341797,-0.061279297,0.27148438,0.06774902,-0.5463867,-0.17358398,61
-12.527466,17.929077,40.84778,-1.0241699,-0.056152344,0.2763672,0.06774902,-0.5463867,-0.17358398,62
-11.306763,21.774292,39.398193,-1.0058594,-0.049560547,0.27978516,0.06774902,-0.5463867,-0.17321777,63
-9.460449,20.050049,37.15515,-0.9934082,-0.044921875,0.2849121,0.068481445,-0.54089355,-0.17321777,64
-6.9122314,15.884399,35.491943,-0.98828125,-0.044921875,0.29077148,0.068481445,-0.54089355,-0.17321777,65
-4.699707,7.873535,34.13391,-0.9831543,-0.045898438,0.29492188,0.06738281,-0.54455566,-0.1743164,66
-2.2125244,0.7171631,32.577515,-0.9797363,-0.04736328,0.29467773,0.06738281,-0.54455566,-0.1743164,67
-0.8544922,-5.2490234,32.53174,-0.9777832,-0.048095703,0.29248047,0.06665039,-0.541626,-0.17138672,68
0.5493164,-8.560181,31.845093,-0.9794922,-0.049804688,0.28564453,0.06665039,-0.541626,-0.17138672,69
2.9907227,-9.429932,30.181885,-0.98461914,-0.053466797,0.2775879,0.06665039,-0.541626,-0.17138672,70
3.6315918,-8.712769,29.129028,-0.9868164,-0.05810547,0.27319336,0.06555176,-0.5397949,-0.17138672,71
5.126953,-6.439209,26.641846,-0.9863281,-0.061767578,0.27416992,0.06555176,-0.5397949,-0.17138672,72
5.8135986,-5.8288574,23.68164,-0.9890137,-0.06933594,0.27978516,0.06774902,-0.54016113,-0.17138672,73
5.9814453,-4.348755,22.079468,-0.9855957,-0.07910156,0.28808594,0.06774902,-0.54016113,-0.17138672,74
6.3934326,-3.1280518,21.42334,-0.97436523,-0.08544922,0.29516602,0.06774902,-0.54016113,-0.17138672,75
6.576538,-3.1280518,20.309448,-0.96240234,-0.08886719,0.29858398,0.06738281,-0.5354004,-0.16882324,76
6.9122314,-2.7313232,18.875122,-0.954834,-0.09106445,0.29663086,0.06738281,-0.5354004,-0.16882324,77
7.461548,-3.1280518,18.051147,-0.95336914,-0.096191406,0.29296875,0.06628418,-0.53430176,-0.16882324,78
7.30896,-0.9918213,18.188477,-0.94873047,-0.1015625,0.2919922,0.06628418,-0.53430176,-0.16882324,79
3.9215088,-0.88500977,18.173218,-0.94091797,-0.103759766,0.2932129,0.06628418,-0.53430176,-0.16882324,80
7.9040527,0.030517578,18.585205,-0.9355469,-0.103515625,0.29882812,0.0703125,-0.53063965,-0.16882324,81
8.468628,-0.030517578,18.432617,-0.9328613,-0.10546875,0.30639648,0.0703125,-0.53063965,-0.16882324,82
8.94165,-0.10681152,19.760132,-0.9272461,-0.10668945,0.31323242,0.06958008,-0.5313721,-0.17211914,83
9.170532,-1.4648438,19.622803,-0.9267578,-0.107910156,0.31933594,0.06958008,-0.5313721,-0.17211914,84
8.682251,-3.982544,19.973755,-0.9309082,-0.111328125,0.32226562,0.06958008,-0.5313721,-0.16809082,85
9.384155,-3.90625,20.507812,-0.935791,-0.11645508,0.3232422,0.07104492,-0.5288086,-0.16809082,86
8.453369,-3.4484863,20.050049,-0.9440918,-0.12182617,0.3232422,0.07104492,-0.5288086,-0.16809082,87
8.834839,-2.0599365,19.622803,-0.9538574,-0.12524414,0.32202148,0.06958008,-0.5288086,-0.17028809,88
8.7890625,0.015258789,18.997192,-0.96118164,-0.1262207,0.3227539,0.06958008,-0.5288086,-0.17028809,89
8.834839,1.6021729,18.341064,-0.96313477,-0.12768555,0.32543945,0.068847656,-0.5262451,-0.16918945,90
8.758545,3.0059814,17.425537,-0.96606445,-0.12670898,0.33154297,0.068847656,-0.5262451,-0.16918945,91
7.5683594,3.1433105,16.448975,-0.96875,-0.1262207,0.33911133,0.068847656,-0.5262451,-0.16918945,92
7.1105957,1.8615723,15.838623,-0.9711914,-0.125,0.34399414,0.07067871,-0.52441406,-0.16662598,93
5.996704,-0.5340576,15.411377,-0.970459,-0.12451172,0.34545898,0.07067871,-0.52441406,-0.16662598,94
5.279541,-3.6621094,15.609741,-0.96875,-0.12402344,0.34204102,0.072143555,-0.5280762,-0.16845703,95
4.2877197,-5.065918,15.289307,-0.970459,-0.1237793,0.3359375,0.072143555,-0.5280762,-0.16845703,96
3.0212402,-5.3100586,14.389038,-0.9770508,-0.12548828,0.328125,0.072143555,-0.5280762,-0.16845703,97
1.9226074,-4.3029785,12.908936,-0.9855957,-0.12841797,0.3232422,0.075805664,-0.5247803,-0.17175293,98
1.876831,-2.6855469,11.810303,-0.99072266,-0.13183594,0.32055664,0.075805664,-0.5247803,-0.17175293,99
0.8544922,-1.1138916,11.21521,-0.9904785,-0.1328125,0.3178711,0.07470703,-0.52404785,-0.17211914,100
1.159668,0.61035156,10.20813,-0.9885254,-0.13232422,0.31567383,0.07470703,-0.52404785,-0.17211914,101
0.30517578,1.876831,8.850098,-0.98876953,-0.13476562,0.3149414,0.07470703,-0.52404785,-0.17211914,102
2.9907227,-6.652832,7.6293945,-0.96972656,-0.14379883,0.29785156,0.068847656,-0.52111816,-0.17175293,106
0.091552734,-10.131836,6.942749,-0.96533203,-0.14477539,0.28710938,0.068847656,-0.52111816,-0.17175293,107
5.6762695,-13.549805,5.630493,-0.9655762,-0.14477539,0.27661133,0.06994629,-0.52001953,-0.16772461,108
6.92749,-15.869141,4.2419434,-0.9694824,-0.14575195,0.2709961,0.06994629,-0.52001953,-0.16772461,109
8.010864,-16.75415,2.456665,-0.9733887,-0.14746094,0.26757812,0.0736084,-0.5229492,-0.1706543,110
7.385254,-15.792847,0.21362305,-0.9765625,-0.14819336,0.26708984,0.0736084,-0.5229492,-0.1706543,111
6.149292,-14.007568,-2.4414062,-0.98291016,-0.14672852,0.26831055,0.0736084,-0.52111816,-0.17102051,112
4.501343,-12.252808,-5.004883,-0.9875488,-0.14501953,0.27124023,0.07507324,-0.52111816,-0.17102051,113
2.9144287,-12.969971,-6.92749,-0.986084,-0.14550781,0.27294922,0.07507324,-0.52111816,-0.17102051,114
1.4038086,-15.472412,-8.880615,-0.9782715,-0.14794922,0.27197266,0.07763672,-0.5214844,-0.16772461,115
0.32043457,-17.562866,-10.192871,-0.9680176,-0.14990234,0.26757812,0.07763672,-0.5214844,-0.16772461,116
0.091552734,-19.607544,-10.650635,-0.9577637,-0.15136719,0.26049805,0.0769043,-0.5233154,-0.16625977,117
-0.74768066,-18.249512,-11.871338,-0.9538574,-0.15454102,0.25439453,0.0769043,-0.5233154,-0.16625977,118
-1.2512207,-14.099121,-13.137817,-0.9562988,-0.15942383,0.25,0.0769043,-0.5233154,-0.16625977,119
-1.8615723,-12.008667,-13.198853,-0.95947266,-0.16625977,0.24853516,0.080200195,-0.52404785,-0.16223145,120
-1.5258789,-10.894775,-13.99231,-0.9589844,-0.17211914,0.24951172,0.080200195,-0.52404785,-0.16223145,121
0.24414062,-11.962891,-14.480591,-0.95092773,-0.1772461,0.24804688,0.07873535,-0.522583,-0.16516113,122
1.8463135,-15.319824,-12.710571,-0.9987793,-0.18066406,0.24291992,0.07873535,-0.522583,-0.16516113,123
3.768921,-18.28003,-11.33728,-0.92333984,-0.18066406,0.23388672,0.07873535,-0.522583,-0.16516113,124
6.3323975,-20.29419,-9.872437,-0.9182129,-0.18041992,0.22729492,0.080200195,-0.52111816,-0.16552734,125
8.7890625,-20.507812,-9.094238,-0.9213867,-0.1809082,0.22558594,0.080200195,-0.52111816,-0.16552734,126
11.260986,-19.714355,-7.797241,-0.92407227,-0.18041992,0.22949219,0.080566406,-0.52111816,-0.16369629,127
13.626099,-18.76831,-6.5307617,-0.92456055,-0.1772461,0.23535156,0.080566406,-0.52111816,-0.16369629,128
16.571045,-17.242432,-4.3792725,-0.92163086,-0.17211914,0.23876953,0.080566406,-0.52111816,-0.16369629,129
18.173218,-15.823364,-2.4871826,-0.9172363,-0.16430664,0.23852539,0.08276367,-0.5181885,-0.16223145,130
21.072388,-16.357422,-0.39672852,-0.91259766,-0.15527344,0.2331543,0.08276367,-0.5181885,-0.16223145,131
24.414062,-19.500732,2.319336,-0.9038086,-0.1472168,0.22143555,0.08129883,-0.5218506,-0.16516113,132
28.701782,-23.31543,5.279541,-0.8918457,-0.13842773,0.20703125,0.08129883,-0.5218506,-0.16516113,133
32.318115,-22.964478,8.758545,-0.8828125,-0.13305664,0.18774414,0.08129883,-0.5189209,-0.15783691,134
34.13391,-17.13562,11.917114,-0.89086914,-0.13378906,0.17822266,0.08276367,-0.5189209,-0.15783691,135
35.629272,-6.9732666,14.312744,-0.9050293,-0.13793945,0.18701172,0.08276367,-0.5189209,-0.15783691,136
35.26306,1.876831,15.411377,-0.9116211,-0.14111328,0.2109375,0.08203125,-0.51452637,-0.15563965,137
34.362793,8.239746,15.457153,-0.91552734,-0.14428711,0.23852539,0.08203125,-0.51452637,-0.15563965,138
31.585693,10.4522705,15.853882,-0.9172363,-0.14575195,0.2619629,0.083862305,-0.51342773,-0.16113281,139
29.006958,9.719849,18.737793,-0.91308594,-0.14697266,0.27929688,0.083862305,-0.51342773,-0.16113281,140
25.9552,6.958008,22.30835,-0.904541,-0.14575195,0.2836914,0.083862305,-0.51342773,-0.16113281,141
23.239136,2.2888184,25.909424,-0.89868164,-0.1430664,0.2800293,0.083496094,-0.51013184,-0.15930176,142
20.828247,-5.7373047,28.137207,-0.90234375,-0.14160156,0.27270508,0.083496094,-0.51013184,-0.15930176,143
18.127441,-13.48877,30.944824,-0.91015625,-0.14086914,0.2685547,0.083862305,-0.5097656,-0.15454102,144
15.686035,-23.208618,33.87451,-0.9182129,-0.13793945,0.2680664,0.083862305,-0.5097656,-0.15454102,145
14.022827,-35.324097,34.469604,-0.9316406,-0.13232422,0.27319336,0.083862305,-0.5097656,-0.15454102,146
11.444092,-45.806885,35.43091,-0.94799805,-0.12817383,0.28759766,0.08276367,-0.5050049,-0.1538086,147
8.270264,-56.44226,36.5448,-0.9572754,-0.12524414,0.30737305,0.08276367,-0.5050049,-0.1538086,148
4.547119,-60.59265,35.949707,-0.97216797,-0.12231445,0.3251953,0.087524414,-0.5046387,-0.14941406,149
-1.0223389,-59.34143,33.996582,-1.0053711,-0.11987305,0.34521484,0.087524414,-0.5046387,-0.14941406,150
-6.6375732,-54.44336,31.326294,-1.0390625,-0.1159668,0.3671875,0.087524414,-0.5046387,-0.14941406,151
-12.237549,-52.65808,28.259277,-1.0632324,-0.10668945,0.37573242,0.087890625,-0.5031738,-0.14611816,152
-14.99939,-59.08203,23.864746,-1.0715332,-0.091796875,0.3701172,0.087890625,-0.5031738,-0.14611816,153
-17.105103,-68.740845,23.590088,-1.0710449,-0.078125,0.3671875,0.09082031,-0.5024414,-0.14758301,154
-19.27185,-80.15442,23.132324,-1.0703125,-0.07324219,0.35839844,0.09082031,-0.5024414,-0.14758301,155
-19.134521,-106.96411,17.700195,-1.0505371,-0.06616211,0.34375,0.09082031,-0.5024414,-0.13916016,156
-19.836426,-132.46155,18.051147,-1.041748,-0.06591797,0.3395996,0.09375,-0.5028076,-0.13916016,157
-20.9198,-156.61621,17.150879,-1.0463867,-0.059570312,0.33251953,0.09375,-0.5028076,-0.13916016,158
-21.484375,-183.41064,11.581421,-1.0478516,-0.050048828,0.31713867,0.09851074,-0.50390625,-0.13659668,159
-19.973755,-205.03235,8.300781,-1.0534668,-0.046875,0.30004883,0.09851074,-0.50390625,-0.13659668,160
-26.611328,-218.0481,3.7841797,-1.0671387,-0.053466797,0.27294922,0.106933594,-0.5013428,-0.12414551,161
-25.161743,-249.46594,-8.239746,-1.0556641,-0.059570312,0.23852539,0.106933594,-0.5013428,-0.12414551,162
-28.503418,-260.97107,-6.2713623,-1.0888672,-0.068603516,0.20166016,0.106933594,-0.5013428,-0.12414551,163
-30.944824,-255.09644,-9.552002,-1.1220703,-0.07861328,0.1538086,0.119018555,-0.50390625,-0.110961914,164
-36.04126,-249.14551,-12.084961,-1.1298828,-0.07910156,0.11425781,0.119018555,-0.50390625,-0.110961914,165
-37.338257,-238.25073,-18.936157,-1.1459961,-0.08618164,0.06958008,0.12451172,-0.5061035,-0.095947266,166
-44.174194,-218.29224,-25.680542,-1.1604004,-0.10107422,0.03149414,0.12451172,-0.5061035,-0.095947266,167
-43.380737,-197.93701,-36.712646,-1.1560059,-0.10571289,-0.005859375,0.12451172,-0.5061035,-0.095947266,168
-46.569824,-186.59973,-39.398193,-1.1318359,-0.110839844,-0.049072266,0.12963867,-0.5057373,-0.08276367,169
-46.691895,-172.85156,-42.160034,-1.1169434,-0.12524414,-0.08203125,0.12963867,-0.5057373,-0.08276367,170
-45.50171,-154.66309,-48.37036,-1.1062012,-0.13134766,-0.10620117,0.13769531,-0.5115967,-0.068847656,171
-48.614502,-133.4076,-47.958374,-1.0715332,-0.14794922,-0.12988281,0.13769531,-0.5115967,-0.068847656,172
-49.728394,-115.448,-51.116943,-1.0476074,-0.15576172,-0.14453125,0.13769531,-0.5115967,-0.068847656,173
-47.668457,-97.3053,-53.771973,-1.0251465,-0.15136719,-0.15307617,0.13952637,-0.5159912,-0.06225586,174
-45.715332,-82.36694,-54.44336,-0.99365234,-0.15405273,-0.15966797,0.13952637,-0.5159912,-0.06225586,175
-44.403076,-69.16809,-58.181763,-0.9831543,-0.15283203,-0.1550293,0.14025879,-0.522583,-0.056396484,176
-43.533325,-57.678223,-57.96814,-0.9638672,-0.14770508,-0.15454102,0.14025879,-0.522583,-0.056396484,177
-41.793823,-51.452637,-58.273315,-0.93774414,-0.14282227,-0.16064453,0.14025879,-0.522583,-0.05126953,178
-39.596558,-50.00305,-58.532715,-0.91503906,-0.13623047,-0.17114258,0.13916016,-0.52368164,-0.05126953,179
-38.848877,-42.526245,-52.093506,-0.9108887,-0.13867188,-0.18530273,0.13916016,-0.52368164,-0.05126953,180
-37.109375,-37.81128,-52.474976,-0.90771484,-0.12963867,-0.19238281,0.14355469,-0.5284424,-0.045410156,181
-36.010742,-32.89795,-50.88806,-0.9187012,-0.1237793,-0.20825195,0.14355469,-0.5284424,-0.045410156,182
-33.798218,-36.499023,-46.875,-0.9082031,-0.12402344,-0.23291016,0.14318848,-0.53430176,-0.03955078,183
-28.656006,-43.36548,-45.516968,-0.8996582,-0.11450195,-0.25097656,0.14318848,-0.53430176,-0.03955078,184
-26.687622,-43.22815,-38.604736,-0.9057617,-0.11206055,-0.25830078,0.14318848,-0.53430176,-0.03955078,185
-21.759033,-30.639648,-31.524658,-0.9267578,-0.10571289,-0.24511719,0.14794922,-0.54125977,-0.041381836,187
-23.117065,-19.104004,-24.017334,-0.9370117,-0.099853516,-0.23266602,0.14538574,-0.5383301,-0.042114258,188
-22.644043,-7.1258545,-20.03479,-0.9404297,-0.08642578,-0.21948242,0.14538574,-0.5383301,-0.042114258,189
-21.209717,-1.1444092,-14.3585205,-0.93310547,-0.07739258,-0.20336914,0.14538574,-0.5383301,-0.042114258,190
-20.53833,8.255005,-8.514404,-0.93066406,-0.06665039,-0.18676758,0.14538574,-0.5419922,-0.037353516,191
-20.187378,22.18628,-2.822876,-0.9338379,-0.052734375,-0.16918945,0.14538574,-0.5419922,-0.037353516,192
-20.858765,35.079956,3.7841797,-0.92944336,-0.04296875,-0.15234375,0.14465332,-0.54418945,-0.042114258,193
-20.629883,42.58728,8.911133,-0.91503906,-0.033203125,-0.13989258,0.14465332,-0.54418945,-0.042114258,194
-21.194458,61.401367,19.607544,-0.90234375,-0.029541016,-0.10644531,0.14685059,-0.54418945,-0.041381836,196
-20.965576,73.88306,22.125244,-0.90478516,-0.024902344,-0.08569336,0.14685059,-0.54418945,-0.041381836,197
-23.132324,86.18164,26.275635,-0.8989258,-0.01928711,-0.06616211,0.14575195,-0.5423584,-0.047973633,198
-25.283813,100.875854,27.526855,-0.8930664,-0.01977539,-0.041015625,0.14575195,-0.5423584,-0.047973633,199
-28.625488,117.66052,29.464722,-0.89282227,-0.02709961,-0.024658203,0.14575195,-0.5423584,-0.047973633,200
-32.730103,138.2904,30.776978,-0.9086914,-0.033447266,-0.010986328,0.140625,-0.5419922,-0.052734375,201
-35.64453,160.79712,30.9906,-0.92285156,-0.043945312,0.0063476562,0.140625,-0.5419922,-0.052734375,202
-39.79492,178.63464,33.53882,-0.9177246,-0.05517578,0.025146484,0.13623047,-0.5390625,-0.060424805,203
-41.809082,191.42151,35.308838,-0.89819336,-0.06518555,0.050048828,0.13623047,-0.5390625,-0.060424805,204
-43.807983,197.73865,38.131714,-0.87280273,-0.080322266,0.07470703,0.13586426,-0.54016113,-0.06921387,205
-47.454834,195.89233,42.22107,-0.85009766,-0.0925293,0.09887695,0.13586426,-0.54016113,-0.06921387,206
-49.37744,189.39209,46.99707,-0.83496094,-0.10449219,0.12182617,0.13586426,-0.54016113,-0.06921387,207
-47.24121,179.84009,56.427002,-0.8129883,-0.12060547,0.13623047,0.13183594,-0.53723145,-0.08203125,208
-51.727295,167.52625,65.87219,-0.8000488,-0.13354492,0.15014648,0.13183594,-0.53723145,-0.08203125,209
-52.749634,157.13501,72.58606,-0.80078125,-0.14794922,0.1550293,0.12597656,-0.5357666,-0.091552734,210
-54.092407,154.23584,81.90918,-0.81152344,-0.1694336,0.15771484,0.12597656,-0.5357666,-0.091552734,211
-54.9469,158.78296,90.9729,-0.8239746,-0.18823242,0.1694336,0.12597656,-0.5357666,-0.091552734,212
-57.84607,172.4701,100.29602,-0.82836914,-0.2043457,0.18457031,0.123046875,-0.5299072,-0.10546875,213
-61.203003,186.50818,110.76355,-0.8171387,-0.21606445,0.19995117,0.123046875,-0.5299072,-0.10546875,214
-63.52234,200.39368,120.45288,-0.79418945,-0.22290039,0.21386719,0.11682129,-0.53027344,-0.11206055,215
-68.222046,247.58911,143.03589,-0.74365234,-0.23388672,0.2277832,0.11682129,-0.53027344,-0.11206055,217
-69.992065,278.35083,154.49524,-0.72216797,-0.24609375,0.23608398,0.10986328,-0.5255127,-0.1274414,218
-70.86182,293.25867,164.71863,-0.6608887,-0.26391602,0.23071289,0.10986328,-0.5255127,-0.1274414,219
-66.0553,309.52454,181.22864,-0.62475586,-0.2734375,0.2290039,0.10070801,-0.52111816,-0.140625,220
-61.11145,329.80347,194.13757,-0.58251953,-0.28149414,0.2175293,0.10070801,-0.52111816,-0.140625,221
-51.17798,335.32715,216.21704,-0.5180664,-0.30493164,0.20117188,0.10070801,-0.52111816,-0.140625,222
-41.534424,320.51086,235.0769,-0.45288086,-0.31445312,0.18017578,0.08239746,-0.5097656,-0.16259766,223
-25.558472,318.77136,257.32422,-0.41430664,-0.32861328,0.17382812,0.08239746,-0.5097656,-0.16259766,224
-6.149292,315.73486,274.7345,-0.39453125,-0.35229492,0.1694336,0.068115234,-0.50427246,-0.17834473,225
15.365601,302.2766,292.78564,-0.39770508,-0.39453125,0.1652832,0.068115234,-0.50427246,-0.17834473,226
38.650513,289.1388,314.8346,-0.40625,-0.44995117,0.16577148,0.068115234,-0.48962402,-0.19042969,227
66.89453,258.5144,332.901,-0.41333008,-0.4934082,0.14941406,0.053100586,-0.48962402,-0.19042969,228
101.60828,204.01001,339.47754,-0.40039062,-0.5358887,0.12988281,0.053100586,-0.48962402,-0.19042969,229
134.44519,159.1034,358.50525,-0.38330078,-0.5974121,0.12109375,0.03955078,-0.47717285,-0.19885254,230
170.89844,115.72266,384.94873,-0.36450195,-0.66381836,0.104003906,0.03955078,-0.47717285,-0.19885254,231
198.59314,74.99695,402.78625,-0.3330078,-0.74121094,0.09741211,0.0234375,-0.45483398,-0.2006836,232
222.21375,40.802002,411.75842,-0.3310547,-0.8112793,0.1081543,0.0234375,-0.45483398,-0.2006836,233
235.13794,24.047852,418.5791,-0.34472656,-0.9108887,0.14916992,0.0234375,-0.45483398,-0.2006836,234
244.01855,21.1792,421.29517,-0.39013672,-1.0161133,0.20776367,0.016113281,-0.42736816,-0.1973877,235
244.7815,31.860352,419.12842,-0.44360352,-1.1333008,0.30297852,0.016113281,-0.42736816,-0.1973877,236
239.28833,62.63733,420.99,-0.49291992,-1.1977539,0.39770508,0.0036621094,-0.4013672,-0.19372559,237
226.27258,106.399536,420.18127,-0.5390625,-1.3537598,0.49267578,0.0036621094,-0.4013672,-0.19372559,238
209.70154,158.96606,413.9557,-0.5720215,-1.4191895,0.55688477,0.0036621094,-0.4013672,-0.19372559,239
192.8711,223.29712,407.05872,-0.58691406,-1.4675293,0.579834,-0.020507812,-0.3812256,-0.1907959,240
175.84229,285.2478,396.16394,-0.5944824,-1.4836426,0.5673828,-0.020507812,-0.3812256,-0.1907959,241
150.46692,348.20557,394.4702,-0.58251953,-1.5297852,0.5476074,-0.048339844,-0.36254883,-0.18969727,242
153.01514,376.34277,367.23328,-0.57177734,-1.4873047,0.5151367,-0.048339844,-0.36254883,-0.18969727,243
141.76941,394.48547,347.0459,-0.5031738,-1.4863281,0.5085449,-0.048339844,-0.36254883,-0.18969727,244
148.86475,376.8921,331.19202,-0.4440918,-1.4873047,0.4892578,-0.08166504,-0.34680176,-0.18493652,245
146.37756,351.13525,323.65417,-0.35742188,-1.5268555,0.48266602,-0.08166504,-0.34680176,-0.18493652,246
149.38354,301.68152,309.93652,-0.2980957,-1.5500488,0.45776367,-0.115722656,-0.34020996,-0.18200684,247
150.98572,248.33679,297.53113,-0.24658203,-1.5817871,0.4411621,-0.115722656,-0.34020996,-0.18200684,248
148.68164,197.79968,287.33826,-0.21142578,-1.626709,0.42236328,-0.115722656,-0.33691406,-0.17687988,249
149.9939,141.73889,278.3203,-0.19921875,-1.6550293,0.40234375,-0.14245605,-0.33691406,-0.17687988,250
142.31873,93.063354,259.42993,-0.16333008,-1.670166,0.39135742,-0.14245605,-0.33691406,-0.17687988,251
143.78357,42.83142,246.87195,-0.1340332,-1.6679688,0.3737793,-0.16259766,-0.33215332,-0.16662598,252
134.79614,0.50354004,232.31506,-0.10620117,-1.671875,0.36401367,-0.16259766,-0.33215332,-0.16662598,253
121.7041,-32.86743,215.10315,-0.09399414,-1.6503906,0.33911133,-0.17541504,-0.32922363,-0.15856934,254
113.586426,-46.203613,174.22485,-0.10498047,-1.5935059,0.33911133,-0.17541504,-0.32922363,-0.15856934,255
101.73035,-55.023193,142.59338,-0.0949707,-1.5634766,0.34179688,-0.17541504,-0.32922363,-0.15856934,0
92.34619,-63.354492,118.97278,-0.08935547,-1.5349121,0.3413086,-0.18164062,-0.3277588,-0.15600586,1
81.66504,-63.476562,91.82739,-0.100097656,-1.479248,0.35009766,-0.18164062,-0.3277588,-0.15600586,2
75.531006,-58.288574,61.523438,-0.08959961,-1.423584,0.35595703,-0.18566895,-0.32958984,-0.15344238,3
65.00244,-52.947998,28.579712,-0.06665039,-1.3950195,0.35375977,-0.18566895,-0.32958984,-0.15344238,4
61.035156,-43.899536,7.598877,-0.057128906,-1.3608398,0.3474121,-0.18566895,-0.32958984,-0.15344238,5
54.153442,-24.917603,-15.136719,-0.053222656,-1.3378906,0.34033203,-0.18237305,-0.32739258,-0.14904785,6
46.47827,-4.9591064,-30.685425,-0.05859375,-1.3156738,0.32836914,-0.18237305,-0.32739258,-0.14904785,7
41.870117,16.601562,-49.957275,-0.060058594,-1.284668,0.32299805,-0.18054199,-0.3244629,-0.14025879,8
33.203125,35.812378,-58.563232,-0.04248047,-1.2741699,0.31640625,-0.18054199,-0.3244629,-0.14025879,9
28.503418,48.690796,-65.00244,-0.024902344,-1.237793,0.30517578,-0.18054199,-0.3244629,-0.14025879,10
27.770996,61.187744,-76.24817,-0.0012207031,-1.1950684,0.29614258,-0.17834473,-0.32263184,-0.14282227,11
25.741577,68.63403,-77.85034,0.025878906,-1.1604004,0.28295898,-0.17834473,-0.32263184,-0.14282227,12
21.636963,73.410034,-79.13208,0.04736328,-1.185791,0.27246094,-0.17834473,-0.31933594,-0.13916016,13
19.210815,75.37842,-79.01001,0.07128906,-1.0883789,0.26245117,-0.17834473,-0.31933594,-0.13916016,14
17.333984,73.8678,-79.17786,0.09008789,-1.0559082,0.25512695,-0.17834473,-0.31933594,-0.13952637,15
15.655518,69.16809,-76.797485,0.10888672,-1.0273438,0.25024414,-0.17687988,-0.31420898,-0.13952637,16
13.519287,62.438965,-73.791504,0.12451172,-1.0070801,0.24414062,-0.17687988,-0.31420898,-0.13952637,17
11.59668,54.122925,-70.67871,0.13354492,-0.98339844,0.23852539,-0.17687988,-0.31713867,-0.13549805,18
-10.803223,4.3182373,-50.27771,0.1550293,-0.9169922,0.16186523,-0.17138672,-0.31201172,-0.1340332,24
-16.586304,-1.3885498,-46.75293,0.16699219,-0.9055176,0.1459961,-0.17175293,-0.31237793,-0.1340332,25
-17.715454,-8.361816,-39.779663,0.17163086,-0.8823242,0.13476562,-0.17175293,-0.31237793,-0.1340332,26
-22.567749,-13.931274,-37.78076,0.17407227,-0.87353516,0.12475586,-0.17175293,-0.31237793,-0.1340332,27
-26.443481,-20.217896,-32.470703,0.17993164,-0.86572266,0.12231445,-0.1673584,-0.30908203,-0.13476562,28
-30.380249,-27.60315,-29.556274,0.18041992,-0.85131836,0.119628906,-0.1673584,-0.30908203,-0.13476562,29
-31.219482,-34.2865,-24.963379,0.1809082,-0.8322754,0.11816406,-0.16442871,-0.3109131,-0.13989258,30
-30.426025,-41.519165,-22.994995,0.17871094,-0.81811523,0.11376953,-0.16442871,-0.3109131,-0.13989258,31
-33.00476,-48.62976,-18.188477,0.18432617,-0.8208008,0.107910156,-0.16442871,-0.3109131,-0.13989258,32
-35.90393,-56.747437,-15.106201,0.18408203,-0.8208008,0.09887695,-0.16479492,-0.31274414,-0.13842773,33
-37.41455,-66.04004,-12.60376,0.17993164,-0.81762695,0.0925293,-0.16479492,-0.31274414,-0.13842773,34
-38.406372,-73.36426,-9.857178,0.17407227,-0.81347656,0.08520508,-0.16040039,-0.3112793,-0.14099121,35
-37.29248,-80.703735,-8.163452,0.16577148,-0.8029785,0.080078125,-0.16040039,-0.3112793,-0.14099121,36
-38.19275,-88.18054,-4.9438477,0.16064453,-0.7963867,0.07421875,-0.16040039,-0.3112793,-0.14099121,37
-38.848877,-95.64209,-3.112793,0.15209961,-0.78808594,0.068115234,-0.15783691,-0.31201172,-0.14282227,38
-39.398193,-98.05298,-0.8544922,0.1496582,-0.7788086,0.06225586,-0.15783691,-0.31201172,-0.14282227,39
-38.391113,-106.01807,0.19836426,0.140625,-0.76416016,0.055419922,-0.15490723,-0.31311035,-0.1439209,40
-37.887573,-109.6344,2.7313232,0.13574219,-0.75683594,0.047851562,-0.15490723,-0.31311035,-0.1439209,41
-37.94861,-109.802246,6.80542,0.13476562,-0.7558594,0.04272461,-0.15014648,-0.3145752,-0.14428711,42
-36.209106,-108.23059,8.224487,0.122802734,-0.75805664,0.041259766,-0.15014648,-0.3145752,-0.14428711,43
-32.546997,-99.0448,11.764526,0.080322266,-0.7692871,0.052490234,-0.14465332,-0.31933594,-0.14978027,45
-30.471802,-81.51245,18.188477,0.036376953,-0.80078125,0.08203125,-0.14135742,-0.31640625,-0.15234375,48
-30.60913,-76.431274,19.821167,0.03125,-0.81103516,0.088378906,-0.14135742,-0.31640625,-0.15234375,49
-30.334473,-72.41821,21.652222,0.029296875,-0.82299805,0.092285156,-0.13769531,-0.31896973,-0.15197754,50
-27.313232,-70.98389,21.560669,0.025146484,-0.83251953,0.09326172,-0.13769531,-0.31896973,-0.15197754,51
-25.71106,-69.885254,22.232056,0.026123047,-0.8408203,0.09399414,-0.13989258,-0.3182373,-0.15454102,52
-23.605347,-70.32776,21.697998,0.022705078,-0.8498535,0.09399414,-0.13989258,-0.3182373,-0.15454102,53
-20.965576,-71.30432,22.43042,0.022705078,-0.8569336,0.0949707,-0.13989258,-0.3182373,-0.15454102,54
-19.729614,-72.265625,23.284912,0.02734375,-0.85913086,0.09643555,-0.13952637,-0.3178711,-0.15856934,55
-18.249512,-72.95227,24.07837,0.032714844,-0.85375977,0.099853516,-0.13952637,-0.3178711,-0.15856934,56
-15.701294,-70.892334,25.466919,0.037841797,-0.8491211,0.10595703,-0.13439941,-0.32043457,-0.15966797,57
-14.953613,-70.388794,26.565552,0.04272461,-0.8466797,0.10913086,-0.13439941,-0.32043457,-0.15966797,58
-14.205933,-67.18445,26.763916,0.041015625,-0.84399414,0.11010742,-0.13439941,-0.32043457,-0.15966797,59
-12.60376,-65.52124,28.579712,0.03173828,-0.8444824,0.107910156,-0.13330078,-0.31933594,-0.16259766,60
-10.238647,-63.99536,30.273438,0.026611328,-0.84594727,0.103515625,-0.13330078,-0.31933594,-0.16259766,61
-11.489868,-63.949585,31.951904,0.021728516,-0.8449707,0.10058594,-0.1303711,-0.3178711,-0.15966797,62
-4.562378,-63.537598,34.072876,0.01586914,-0.8474121,0.10058594,-0.1303711,-0.3178711,-0.15966797,63
-2.2888184,-60.012817,37.384033,0.009277344,-0.85791016,0.103271484,-0.1303711,-0.32080078,-0.15966797,64
2.0599365,-62.11853,40.45105,0.013427734,-0.86450195,0.10424805,-0.12670898,-0.32080078,-0.15966797,65
5.844116,-60.195923,42.32788,0.010986328,-0.8737793,0.11230469,-0.12670898,-0.32080078,-0.15966797,66
6.744385,-56.427002,48.01941,0.0073242188,-0.8859863,0.11987305,-0.12634277,-0.31970215,-0.16479492,67
11.764526,-52.612305,48.12622,0.0043945312,-0.8840332,0.1274414,-0.12634277,-0.31970215,-0.16479492,68
14.9383545,-48.797607,48.950195,0.0017089844,-0.87841797,0.13330078,-0.12561035,-0.31896973,-0.16003418,69
19.241333,-44.708252,51.574707,-0.0036621094,-0.87158203,0.13891602,-0.12561035,-0.31896973,-0.16003418,70
27.297974,-31.799316,55.099487,-0.010253906,-0.8408203,0.15698242,-0.12561035,-0.31713867,-0.16223145,72
34.63745,-2.3651123,50.26245,-0.049560547,-0.8461914,0.19628906,-0.12963867,-0.31750488,-0.15966797,75
35.01892,9.063721,47.683716,-0.05908203,-0.8520508,0.21191406,-0.12963867,-0.31750488,-0.15966797,76
34.39331,20.812988,44.204712,-0.06518555,-0.8574219,0.22167969,-0.12927246,-0.31567383,-0.15930176,77
32.913208,28.747559,41.85486,-0.06713867,-0.8640137,0.22802734,-0.12927246,-0.31567383,-0.15930176,78
31.99768,37.200928,38.650513,-0.06518555,-0.86865234,0.23144531,-0.13476562,-0.31347656,-0.15710449,79
30.807495,43.945312,36.819458,-0.056640625,-0.87231445,0.23120117,-0.13476562,-0.31347656,-0.15710449,80
28.9917,47.851562,34.65271,-0.043945312,-0.87646484,0.23388672,-0.13476562,-0.31347656,-0.15710449,81
27.46582,50.247192,32.211304,-0.032958984,-0.8869629,0.23876953,-0.13916016,-0.3116455,-0.1541748,82
20.141602,45.913696,27.313232,-0.020996094,-0.9199219,0.25341797,-0.140625,-0.31420898,-0.15454102,84
16.204834,41.35132,25.32959,-0.015136719,-0.9321289,0.25732422,-0.140625,-0.31420898,-0.15454102,85
12.298584,35.65979,22.949219,-0.0146484375,-0.9387207,0.25927734,-0.140625,-0.31347656,-0.14868164,86
7.385254,27.252197,19.592285,-0.016601562,-0.9465332,0.25854492,-0.14575195,-0.31347656,-0.14868164,87
2.5787354,17.623901,16.571045,-0.013916016,-0.94970703,0.2578125,-0.14575195,-0.31347656,-0.14868164,88
-1.4648438,7.9956055,15.213013,-0.0107421875,-0.94750977,0.2541504,-0.14831543,-0.31311035,-0.14941406,89
-6.225586,-2.822876,5.5999756,-0.0078125,-0.94506836,0.24804688,-0.14831543,-0.31311035,-0.14941406,90
-11.260986,-13.626099,-0.030517578,-0.00390625,-0.9458008,0.23876953,-0.14794922,-0.3145752,-0.15270996,91
-13.870239,-23.269653,-7.095337,-0.0026855469,-0.9423828,0.22314453,-0.14794922,-0.3145752,-0.15270996,92
-16.616821,-35.01892,-13.977051,0.0017089844,-0.9382324,0.20678711,-0.14794922,-0.3145752,-0.15270996,93
-18.356323,-42.022705,-20.339966,0.0053710938,-0.93408203,0.19189453,-0.14501953,-0.31347656,-0.14868164,94
-19.77539,-45.578003,-27.557373,0.00390625,-0.9370117,0.17993164,-0.14501953,-0.31347656,-0.14868164,95
-19.53125,-48.568726,-32.36389,0.00390625,-0.9506836,0.17553711,-0.14208984,-0.31420898,-0.15637207,96
-20.889282,-49.713135,-36.499023,0.010498047,-0.9694824,0.17651367,-0.14208984,-0.31420898,-0.15637207,97
-21.728516,-50.14038,-39.5813,0.018066406,-0.98876953,0.1809082,-0.14208984,-0.31420898,-0.15637207,98
-22.81189,-52.15454,-41.641235,0.021728516,-1.015625,0.18383789,-0.13806152,-0.31347656,-0.15856934,99
-21.591187,-53.222656,-43.685913,0.020507812,-1.0400391,0.1862793,-0.13806152,-0.31347656,-0.15856934,100
-20.477295,-54.41284,-44.906616,0.018066406,-1.0705566,0.18823242,-0.13366699,-0.3145752,-0.15930176,101
-19.180298,-55.664062,-44.23523,0.013916016,-1.1013184,0.19116211,-0.13366699,-0.3145752,-0.15930176,102
-16.723633,-56.06079,-43.258667,0.013916016,-1.1242676,0.19628906,-0.13366699,-0.3145752,-0.15930176,103
-15.701294,-53.237915,-41.33606,0.020996094,-1.1413574,0.20458984,-0.12963867,-0.31640625,-0.15637207,104
-16.082764,-53.05481,-39.001465,0.02734375,-1.1508789,0.21166992,-0.12963867,-0.31640625,-0.15637207,105
-12.756348,-47.24121,-40.222168,0.02709961,-1.1286621,0.22021484,-0.122680664,-0.31750488,-0.15637207,106
-8.758545,-42.541504,-41.381836,0.028320312,-1.0991211,0.22583008,-0.122680664,-0.31750488,-0.15637207,107
-6.0577393,-36.68213,-43.182373,0.03125,-1.0703125,0.23291016,-0.122680664,-0.31750488,-0.16003418,108
-3.540039,-28.518677,-46.14258,0.03564453,-1.0324707,0.23803711,-0.11975098,-0.32263184,-0.16003418,109
-0.61035156,-18.539429,-49.1333,0.038085938,-0.99487305,0.24291992,-0.11975098,-0.32263184,-0.16003418,110
2.090454,-5.493164,-52.78015,0.040527344,-0.9621582,0.24658203,-0.11462402,-0.3182373,-0.16149902,111
4.8828125,8.346558,-55.221558,0.044189453,-0.93359375,0.24926758,-0.11462402,-0.3182373,-0.16149902,112
6.8206787,39.505005,-57.006836,0.05883789,-0.9128418,0.2619629,-0.11315918,-0.31567383,-0.16552734,114
5.722046,52.078247,-56.30493,0.068359375,-0.92211914,0.26953125,-0.11315918,-0.31567383,-0.16552734,115
4.1503906,62.36267,-53.17688,0.07495117,-0.9367676,0.27539062,-0.115722656,-0.31750488,-0.15783691,116
1.7242432,67.26074,-48.706055,0.08105469,-0.9543457,0.27612305,-0.115722656,-0.31750488,-0.15783691,117
-0.21362305,68.115234,-44.952393,0.088134766,-0.970459,0.27270508,-0.114990234,-0.31750488,-0.15820312,118
-2.319336,65.39917,-39.916992,0.095703125,-0.98876953,0.26464844,-0.114990234,-0.31750488,-0.15820312,119
-4.3945312,57.83081,-35.03418,0.10229492,-1.0092773,0.25219727,-0.114990234,-0.31750488,-0.15820312,120
-5.783081,49.728394,-29.571533,0.10986328,-1.0229492,0.23730469,-0.11315918,-0.31677246,-0.15710449,121
-6.713867,37.338257,-24.215698,0.1184082,-1.0288086,0.21972656,-0.11315918,-0.31677246,-0.15710449,122
-6.4086914,25.466919,-19.683838,0.12939453,-1.0314941,0.2055664,-0.1138916,-0.31933594,-0.1607666,123
-5.7678223,15.060425,-14.144897,0.14404297,-1.0280762,0.19189453,-0.1138916,-0.31933594,-0.1607666,124
-5.218506,4.6539307,-10.284424,0.15429688,-1.0161133,0.18554688,-0.1138916,-0.31933594,-0.1607666,125
-4.760742,-2.319336,-8.255005,0.15332031,-1.003418,0.18579102,-0.115356445,-0.32006836,-0.16369629,126
-4.119873,-6.5612793,-7.232666,0.14013672,-0.9892578,0.19433594,-0.115356445,-0.32006836,-0.16369629,127
-2.6550293,-9.307861,-6.3476562,0.122802734,-0.97314453,0.20410156,-0.11608887,-0.32006836,-0.16003418,128
-0.88500977,-11.001587,-5.783081,0.10546875,-0.9592285,0.21484375,-0.11608887,-0.32006836,-0.16003418,129
0.38146973,-10.971069,-5.1116943,0.091796875,-0.9499512,0.22192383,-0.11608887,-0.32006836,-0.16003418,130
1.3885498,-8.865356,-3.90625,0.07763672,-0.9453125,0.22583008,-0.11279297,-0.3218994,-0.15563965,131
0.7324219,8.911133,2.4108887,0.03173828,-0.95703125,0.23828125,-0.10986328,-0.31750488,-0.15856934,135
0.6713867,11.260986,4.180908,0.026367188,-0.9658203,0.23779297,-0.10986328,-0.31750488,-0.15856934,136
1.0375977,11.611938,6.2408447,0.026611328,-0.97387695,0.23583984,-0.10986328,-0.31750488,-0.15856934,137
1.449585,10.040283,7.4920654,0.028564453,-0.9814453,0.23266602,-0.10803223,-0.31896973,-0.16149902,138
1.739502,7.9956055,8.163452,0.029785156,-0.98779297,0.22827148,-0.10803223,-0.31896973,-0.16149902,139
2.1209717,5.065918,8.712769,0.032714844,-0.99243164,0.22216797,-0.1138916,-0.31750488,-0.16259766,140
2.8839111,2.2125244,9.140015,0.036376953,-0.9926758,0.21386719,-0.1138916,-0.31750488,-0.16259766,141
4.0130615,0.6713867,9.414673,0.037353516,-0.9892578,0.20800781,-0.1138916,-0.31750488,-0.16259766,142
4.837036,-1.159668,9.20105,0.033447266,-0.98779297,0.20532227,-0.110961914,-0.3182373,-0.16259766,143
5.554199,-1.1749268,9.70459,0.028320312,-0.98779297,0.2055664,-0.110961914,-0.3182373,-0.16259766,144
5.9661865,-0.79345703,10.08606,0.01953125,-0.9868164,0.20996094,-0.1138916,-0.31750488,-0.16113281,145
6.500244,-0.33569336,10.391235,0.011230469,-0.98583984,0.21484375,-0.1138916,-0.31750488,-0.16113281,146
6.30188,0.8392334,10.803223,0.005126953,-0.98583984,0.22045898,-0.1138916,-0.31750488,-0.16113281,147
7.4157715,1.6479492,11.062622,0.0017089844,-0.9868164,0.22509766,-0.115356445,-0.31713867,-0.15893555,148
7.0648193,3.1433105,11.383057,0.0007324219,-0.9880371,0.22875977,-0.115356445,-0.31713867,-0.15893555,149
6.9122314,4.7302246,15.50293,0,-0.98828125,0.23168945,-0.11608887,-0.31750488,-0.16186523,150
7.095337,5.584717,11.108398,0,-0.98583984,0.23291016,-0.11608887,-0.31750488,-0.16186523,151
7.4920654,6.80542,10.620117,-0.00024414062,-0.98168945,0.23168945,-0.11608887,-0.31750488,-0.16186523,152
7.888794,6.5612793,9.399414,-0.0009765625,-0.9777832,0.22998047,-0.111328125,-0.31347656,-0.15783691,153
8.148193,6.515503,8.4991455,-0.0017089844,-0.9741211,0.22753906,-0.111328125,-0.31347656,-0.15783691,154
8.026123,6.8969727,7.8430176,-0.0029296875,-0.9692383,0.22583008,-0.11645508,-0.31530762,-0.15966797,155
9.0789795,6.439209,6.6223145,-0.0043945312,-0.96533203,0.22387695,-0.11645508,-0.31530762,-0.15966797,156
8.773804,6.7749023,5.8135986,-0.0029296875,-0.9626465,0.22290039,-0.11645508,-0.3149414,-0.16223145,157
8.361816,7.080078,5.508423,-0.0024414062,-0.96118164,0.22314453,-0.11791992,-0.3149414,-0.16223145,158
8.2092285,7.8430176,5.203247,-0.0029296875,-0.96069336,0.2241211,-0.11791992,-0.3149414,-0.16223145,159
8.163452,8.178711,5.279541,-0.00390625,-0.9604492,0.2253418,-0.114990234,-0.3149414,-0.15490723,160
7.888794,8.224487,5.1879883,-0.004638672,-0.96118164,0.2277832,-0.114990234,-0.3149414,-0.15490723,161
7.9040527,8.2092285,5.630493,-0.005859375,-0.9633789,0.23046875,-0.118652344,-0.31347656,-0.1574707,162
7.797241,7.9956055,5.554199,-0.007080078,-0.96655273,0.2331543,-0.118652344,-0.31347656,-0.1574707,163
7.385254,7.4768066,5.874634,-0.008300781,-0.9699707,0.23608398,-0.118652344,-0.31347656,-0.1574707,164
6.6833496,7.6904297,5.935669,-0.0087890625,-0.9758301,0.23754883,-0.119384766,-0.31604004,-0.15710449,165
6.362915,6.729126,5.3863525,-0.008544922,-0.9802246,0.2368164,-0.119384766,-0.31604004,-0.15710449,166
5.1574707,5.7373047,4.3029785,-0.008544922,-0.9831543,0.23486328,-0.12084961,-0.31640625,-0.1538086,167
5.1116943,4.2266846,3.2196045,-0.009277344,-0.9863281,0.2331543,-0.12084961,-0.31640625,-0.1538086,168
7.659912,2.822876,2.0751953,-0.010498047,-0.9880371,0.22973633,-0.12084961,-0.31640625,-0.1538086,169
4.2877197,1.8005371,0.79345703,-0.010009766,-0.9875488,0.22583008,-0.11791992,-0.31567383,-0.15527344,170
4.119873,1.4343262,-0.10681152,-0.009277344,-0.9851074,0.22290039,-0.11791992,-0.31567383,-0.15527344,171
4.257202,1.449585,-1.953125,-0.008544922,-0.982666,0.22070312,-0.12121582,-0.31530762,-0.15344238,172
4.6691895,1.6479492,-2.5177002,-0.011230469,-0.9807129,0.22143555,-0.12121582,-0.31530762,-0.15344238,173
4.3182373,2.5482178,-3.8757324,-0.014892578,-0.9797363,0.22387695,-0.12121582,-0.31530762,-0.15344238,174
4.196167,3.7994385,-4.486084,-0.017822266,-0.9785156,0.2253418,-0.12121582,-0.31713867,-0.15673828,175
3.9520264,5.142212,-5.2337646,-0.019042969,-0.9777832,0.22583008,-0.12121582,-0.31713867,-0.15673828,176
3.4942627,5.4016113,-5.4779053,-0.017822266,-0.9770508,0.22558594,-0.11791992,-0.31640625,-0.15600586,177
3.4942627,6.8206787,-5.874634,-0.016357422,-0.97753906,0.22436523,-0.11791992,-0.31640625,-0.15600586,178
3.768921,6.8206787,-6.1187744,-0.015380859,-0.97753906,0.22290039,-0.11791992,-0.3149414,-0.15490723,179
3.7384033,7.247925,-6.149292,-0.014404297,-0.9772949,0.2211914,-0.119384766,-0.3149414,-0.15490723,180
4.043579,6.790161,-6.0424805,-0.012939453,-0.9765625,0.22021484,-0.119384766,-0.3149414,-0.15490723,181
3.982544,5.9509277,-6.8511963,-0.011230469,-0.9758301,0.21875,-0.118652344,-0.31604004,-0.15600586,183
4.0740967,5.9051514,-7.1105957,-0.010498047,-0.9753418,0.2175293,-0.11682129,-0.3178711,-0.1541748,184
3.540039,5.2337646,-7.965088,-0.009521484,-0.97314453,0.2163086,-0.11682129,-0.3178711,-0.1541748,185
3.40271,5.2948,-8.666992,-0.0107421875,-0.97265625,0.2163086,-0.11682129,-0.3178711,-0.1541748,186
3.5552979,4.5928955,-9.429932,-0.011962891,-0.97314453,0.21655273,-0.1171875,-0.31567383,-0.15197754,187
3.4484863,4.470825,-9.82666,-0.010986328,-0.97509766,0.21655273,-0.1171875,-0.31567383,-0.15197754,188
3.036499,4.91333,-9.674072,-0.007080078,-0.97631836,0.2163086,-0.11608887,-0.31274414,-0.15490723,189
2.8076172,4.7454834,-10.223389,-0.0036621094,-0.97802734,0.21557617,-0.11608887,-0.31274414,-0.15490723,190
2.319336,4.91333,-10.650635,-0.0029296875,-0.9790039,0.21484375,-0.11608887,-0.31274414,-0.15490723,191
1.8157959,4.638672,-10.7421875,-0.0036621094,-0.97875977,0.21386719,-0.11462402,-0.31530762,-0.15563965,192
2.5024414,4.425049,-10.879517,-0.0031738281,-0.9782715,0.21313477,-0.11462402,-0.31530762,-0.15563965,193
2.1972656,5.1727295,-11.09314,-0.0007324219,-0.97753906,0.2121582,-0.11462402,-0.3145752,-0.14978027,194
1.9683838,5.8135986,-10.864258,0.0009765625,-0.97802734,0.21142578,-0.11462402,-0.3145752,-0.14978027,195
1.9226074,6.652832,-10.543823,0.001953125,-0.97875977,0.2109375,-0.11462402,-0.3145752,-0.14978027,196
2.7618408,7.30896,-9.872437,0.0034179688,-0.9794922,0.20996094,-0.11682129,-0.31274414,-0.14794922,197
2.7313232,7.8430176,-9.307861,0.005126953,-0.9819336,0.2084961,-0.11682129,-0.31274414,-0.14794922,198
2.8686523,8.2092285,-8.529663,0.0068359375,-0.9838867,0.20776367,-0.11682129,-0.3178711,-0.15307617,199
3.0822754,8.117676,-7.9040527,0.0078125,-0.984375,0.20751953,-0.11682129,-0.3178711,-0.15307617,200
3.1433105,9.552002,-6.7596436,0.0078125,-0.98339844,0.20727539,-0.11682129,-0.3178711,-0.15124512,201
3.6621094,10.925293,-6.0577393,0.0068359375,-0.9812012,0.2084961,-0.114990234,-0.31420898,-0.15124512,202
3.692627,12.390137,-5.3100586,0.0056152344,-0.98046875,0.2097168,-0.114990234,-0.31420898,-0.15124512,203
3.5095215,12.924194,-4.8065186,0.004638672,-0.98095703,0.2097168,-0.11682129,-0.3145752,-0.15270996,204
3.5247803,14.73999,-3.7384033,0.0056152344,-0.9807129,0.20825195,-0.11682129,-0.3145752,-0.15270996,205
4.058838,13.839722,-1.4648438,0.009277344,-0.98706055,0.20483398,-0.11755371,-0.3145752,-0.15197754,207
3.8146973,13.336182,-0.5645752,0.009765625,-0.99365234,0.2043457,-0.11755371,-0.3145752,-0.15197754,208
3.2196045,12.283325,0.48828125,0.0087890625,-0.9970703,0.20483398,-0.11608887,-0.31274414,-0.15197754,209
3.4484863,12.069702,0.91552734,0.007080078,-0.9975586,0.20532227,-0.11608887,-0.31274414,-0.15197754,210
3.1738281,12.054443,1.8463135,0.0061035156,-0.9970703,0.20483398,-0.11645508,-0.31384277,-0.1541748,211
3.1585693,11.581421,2.0599365,0.005859375,-0.9958496,0.20458984,-0.11645508,-0.31384277,-0.1541748,212
3.0517578,12.771606,2.2735596,0.0034179688,-0.9941406,0.20385742,-0.11645508,-0.31384277,-0.1541748,213
3.3569336,13.244629,2.5024414,-0.00024414062,-0.9921875,0.20458984,-0.11608887,-0.31384277,-0.14978027,214
3.768921,14.49585,2.1209717,-0.0061035156,-0.9897461,0.20629883,-0.11608887,-0.31384277,-0.14978027,215
3.326416,16.51001,1.8920898,-0.009765625,-0.9868164,0.20751953,-0.11828613,-0.31530762,-0.14904785,216
3.250122,18.295288,2.0141602,-0.013427734,-0.9836426,0.20898438,-0.11828613,-0.31530762,-0.14904785,217
3.0975342,20.080566,2.243042,-0.017089844,-0.98046875,0.20776367,-0.119384766,-0.31750488,-0.15124512,219
2.7008057,20.41626,2.5939941,-0.017089844,-0.9807129,0.20678711,-0.119384766,-0.31750488,-0.15124512,220
2.5024414,19.302368,2.7618408,-0.017089844,-0.9819336,0.20654297,-0.1171875,-0.31420898,-0.14941406,221
2.1514893,18.600464,3.2958984,-0.016113281,-0.98339844,0.20605469,-0.1171875,-0.31420898,-0.14941406,222
1.3580322,17.27295,3.1738281,-0.016845703,-0.9848633,0.2055664,-0.1171875,-0.31420898,-0.14941406,223
0.7019043,16.174316,3.3874512,-0.018798828,-0.98876953,0.20605469,-0.11462402,-0.31420898,-0.15270996,224
0.36621094,15.151978,3.1433105,-0.020507812,-0.9916992,0.20654297,-0.11462402,-0.31420898,-0.15270996,225
-0.30517578,14.724731,3.2958984,-0.021240234,-0.99438477,0.20605469,-0.11975098,-0.31420898,-0.15234375,226
-1.4190674,13.839722,2.9296875,-0.02368164,-0.99658203,0.2055664,-0.11975098,-0.31420898,-0.15234375,227
-2.0141602,12.9852295,2.7160645,-0.024169922,-0.998291,0.2043457,-0.11975098,-0.31860352,-0.15234375,228
-2.5024414,12.069702,2.8381348,-0.024902344,-1,0.20385742,-0.11975098,-0.31860352,-0.15234375,229
-3.7078857,11.09314,2.6550293,-0.023925781,-1.0039062,0.20410156,-0.11975098,-0.31860352,-0.15234375,230
-4.9591064,9.643555,2.2888184,-0.022705078,-1.0083008,0.20336914,-0.1237793,-0.31420898,-0.15490723,231
-6.1187744,6.7596436,2.243042,-0.021240234,-1.0129395,0.20166016,-0.1237793,-0.31420898,-0.15490723,232
-7.7056885,4.8675537,2.6245117,-0.018554688,-1.0180664,0.19921875,-0.122680664,-0.31347656,-0.15234375,233
-8.605957,2.3040771,2.6855469,-0.014892578,-1.0251465,0.19702148,-0.122680664,-0.31347656,-0.15234375,234
-9.963989,-0.1373291,2.5787354,-0.011230469,-1.0354004,0.19555664,-0.122680664,-0.31347656,-0.15234375,235
-12.069702,-2.5787354,1.9073486,-0.0107421875,-1.0422363,0.19311523,-0.11755371,-0.31713867,-0.15234375,236
-13.549805,-5.706787,1.4190674,-0.010498047,-1.0446777,0.1887207,-0.11755371,-0.31713867,-0.15234375,237
-15.029907,-9.399414,0.88500977,-0.0073242188,-1.0419922,0.18383789,-0.119384766,-0.31567383,-0.15161133,238
-15.380859,-12.802124,-0.35095215,-0.0041503906,-1.0375977,0.17749023,-0.119384766,-0.31567383,-0.15161133,239
-15.808105,-17.196655,-1.5106201,-0.0014648438,-1.0322266,0.17114258,-0.119384766,-0.31567383,-0.15161133,240
-16.052246,-19.714355,-2.6397705,0.0007324219,-1.0246582,0.1652832,-0.11975098,-0.31896973,-0.1574707,241
-15.899658,-22.30835,-4.257202,0.0017089844,-1.0170898,0.15942383,-0.11975098,-0.31896973,-0.1574707,242
-15.075684,-24.383545,-5.004883,0.0021972656,-1.0095215,0.15405273,-0.11755371,-0.31604004,-0.15270996,243
-13.85498,-24.230957,-4.974365,0.0017089844,-1.0024414,0.15039062,-0.11755371,-0.31604004,-0.15270996,244
-12.008667,-20.736694,-4.7302246,-0.00024414062,-0.9880371,0.14697266,-0.11425781,-0.31604004,-0.1541748,246
-11.047363,-16.540527,-4.5928955,-0.0009765625,-0.9812012,0.14672852,-0.11425781,-0.31604004,-0.1541748,247
-10.437012,-10.757446,-2.9144287,-0.0024414062,-0.97753906,0.14697266,-0.11206055,-0.31750488,-0.15893555,248
-9.460449,-7.385254,-1.7700195,-0.0043945312,-0.9746094,0.14892578,-0.11206055,-0.31750488,-0.15893555,249
-8.270264,-3.5095215,0.45776367,-0.0056152344,-0.97143555,0.15209961,-0.11608887,-0.3178711,-0.15710449,250
-7.6446533,-0.6866455,2.670288,-0.0034179688,-0.96972656,0.15405273,-0.11608887,-0.3178711,-0.15710449,251
-6.5612793,1.2664795,5.41687,-0.00024414062,-0.9699707,0.1538086,-0.11608887,-0.3178711,-0.15710449,252
-6.2408447,1.3122559,7.446289,0.0024414062,-0.97143555,0.15161133,-0.11425781,-0.3182373,-0.15783691,253
-4.9438477,1.1749268,9.094238,0.0036621094,-0.9765625,0.14941406,-0.11425781,-0.3182373,-0.15783691,254
-4.3945312,0.76293945,10.971069,0.0036621094,-0.9836426,0.14648438,-0.11755371,-0.31860352,-0.15820312,255
-3.189087,3.7384033,12.451172,0.0024414062,-0.9902344,0.14526367,-0.11755371,-0.31860352,-0.15820312,0
-2.2583008,-1.8005371,14.61792,-0.0031738281,-0.9992676,0.14770508,-0.11645508,-0.32299805,-0.15783691,2
-2.1514893,-1.5106201,14.846802,-0.0073242188,-1.0019531,0.14941406,-0.11645508,-0.32299805,-0.15783691,3
-1.6479492,-1.6937256,11.795044,-0.01171875,-1.0031738,0.15209961,-0.11645508,-0.3215332,-0.15527344,4
-0.8392334,-1.6784668,15.350342,-0.014404297,-1.0041504,0.15429688,-0.11645508,-0.3215332,-0.15527344,5
-0.77819824,-1.6784668,14.984131,-0.015136719,-1.0065918,0.15649414,-0.11645508,-0.3215332,-0.15527344,6
-0.64086914,-1.8920898,15.2282715,-0.016113281,-1.0090332,0.15844727,-0.12231445,-0.3215332,-0.15600586,7
-0.18310547,-2.105713,14.511108,-0.018066406,-1.0102539,0.15942383,-0.12231445,-0.3215332,-0.15600586,8
-0.030517578,-1.6784668,14.083862,-0.020019531,-1.0097656,0.16015625,-0.11755371,-0.31933594,-0.15930176,9
0.38146973,-1.8310547,13.519287,-0.020996094,-1.0087891,0.16088867,-0.11755371,-0.31933594,-0.15930176,10
0.24414062,-1.1749268,13.031006,-0.020263672,-1.0058594,0.16210938,-0.11755371,-0.31933594,-0.15930176,11
0.9613037,-1.2359619,12.1154785,-0.020263672,-1.0031738,0.1640625,-0.11975098,-0.31896973,-0.15856934,12
0.5645752,-0.579834,11.703491,-0.01953125,-0.99975586,0.16674805,-0.11975098,-0.31896973,-0.15856934,13
0.7324219,-0.39672852,11.489868,-0.01953125,-0.99560547,0.16894531,-0.11975098,-0.31860352,-0.15783691,14
0.869751,0.21362305,10.665894,-0.01977539,-0.99194336,0.171875,-0.11975098,-0.31860352,-0.15783691,15
0.38146973,0.35095215,10.543823,-0.01928711,-0.98999023,0.17260742,-0.11975098,-0.31970215,-0.15930176,16
0.5340576,1.083374,9.597778,-0.018310547,-0.9904785,0.17163086,-0.12084961,-0.31970215,-0.15930176,17
0.5187988,0.9765625,9.338379,-0.015625,-0.9953613,0.16967773,-0.12084961,-0.31970215,-0.15930176,18
0.6713867,0.9613037,9.384155,-0.01171875,-1.0058594,0.16894531,-0.12194824,-0.31420898,-0.15527344,19
0.5950928,0.579834,9.277344,-0.0075683594,-1.0166016,0.17016602,-0.12194824,-0.31420898,-0.15527344,20
0.77819824,0.33569336,9.475708,-0.0036621094,-1.0241699,0.17333984,-0.1237793,-0.3178711,-0.16223145,21
0.76293945,-0.2593994,9.490967,0.0017089844,-1.0234375,0.17504883,-0.1237793,-0.3178711,-0.16223145,22
0.9460449,0.10681152,8.94165,0.0061035156,-1.0168457,0.17602539,-0.1237793,-0.3178711,-0.16223145,23
1.7852783,-0.76293945,7.7667236,0.007080078,-1.0100098,0.17773438,-0.12011719,-0.31970215,-0.16259766,24
2.89917,0.2593994,6.4697266,0.008056641,-1.0056152,0.1796875,-0.12011719,-0.31970215,-0.16259766,25
3.6468506,1.8005371,5.1116943,0.011230469,-1.0004883,0.18359375,-0.122680664,-0.31677246,-0.15856934,26
4.3182373,3.5858154,4.135132,0.014404297,-0.9902344,0.18676758,-0.122680664,-0.31677246,-0.15856934,27
4.3182373,4.6844482,3.1738281,0.018554688,-0.9777832,0.19042969,-0.122680664,-0.31677246,-0.15856934,28
4.333496,7.522583,2.1209717,0.036621094,-0.9494629,0.203125,-0.12121582,-0.31640625,-0.16149902,32
3.326416,7.659912,2.4719238,0.040039062,-0.9511719,0.20410156,-0.12121582,-0.31640625,-0.16149902,33
1.6937256,5.4016113,3.3111572,0.047607422,-0.9584961,0.20507812,-0.1204834,-0.3178711,-0.1574707,35
0.48828125,2.8839111,4.180908,0.052490234,-0.9621582,0.20605469,-0.1204834,-0.3178711,-0.15893555,36
-0.5493164,3.753662,4.119873,0.056152344,-0.9667969,0.20678711,-0.1204834,-0.3178711,-0.15893555,37
-0.9918213,-3.8909912,4.6844482,0.05908203,-0.9724121,0.20678711,-0.1204834,-0.31933594,-0.16040039,38
-0.579834,-8.087158,4.8828125,0.0637207,-0.97631836,0.20654297,-0.12231445,-0.31933594,-0.16040039,39
-1.0681152,-12.374878,5.0201416,0.067871094,-0.9790039,0.20581055,-0.12231445,-0.31933594,-0.16040039,40
-1.0986328,-15.960693,5.3100586,0.0690918,-0.982666,0.20605469,-0.1204834,-0.31640625,-0.15893555,41
-0.5187988,-19.180298,4.989624,0.067871094,-0.9873047,0.20825195,-0.1204834,-0.31640625,-0.15893555,42
-0.39672852,-20.523071,4.837036,0.06689453,-0.9904785,0.2109375,-0.11608887,-0.31713867,-0.15454102,43
0.32043457,-21.362305,4.6539307,0.063964844,-0.99243164,0.21240234,-0.11608887,-0.31713867,-0.15454102,44
0.579834,-21.621704,5.2337646,0.064208984,-0.99121094,0.21240234,-0.11608887,-0.31713867,-0.15454102,45
1.663208,-21.362305,5.218506,0.06323242,-0.9880371,0.2121582,-0.11608887,-0.32043457,-0.16040039,46
1.7700195,-19.699097,5.340576,0.06201172,-0.98583984,0.21386719,-0.11608887,-0.32043457,-0.16040039,47
2.9296875,-17.242432,5.0201416,0.061767578,-0.98291016,0.2163086,-0.11645508,-0.31750488,-0.15893555,48
2.9907227,-14.190674,5.0201416,0.0637207,-0.9772949,0.21948242,-0.11645508,-0.31750488,-0.15893555,49
3.5705566,-15.441895,4.91333,0.064208984,-0.97021484,0.22290039,-0.11645508,-0.31750488,-0.15893555,50
4.699707,-9.384155,4.7302246,0.064453125,-0.9616699,0.22631836,-0.11425781,-0.31677246,-0.16040039,51
5.783081,-4.928589,5.3253174,0.06933594,-0.9506836,0.23266602,-0.115356445,-0.31640625,-0.15820312,53
6.4697266,-3.0670166,5.859375,0.0703125,-0.94921875,0.23486328,-0.115356445,-0.31640625,-0.15820312,54
6.2713623,-1.9378662,7.0495605,0.07421875,-0.9499512,0.23706055,-0.115356445,-0.31640625,-0.15820312,55
6.2408447,-0.93078613,7.583618,0.07714844,-0.9519043,0.23950195,-0.11462402,-0.3149414,-0.16003418,56
6.454468,-1.2054443,8.712769,0.08178711,-0.9562988,0.2409668,-0.11462402,-0.3149414,-0.16003418,57
5.874634,-3.0059814,10.177612,0.088378906,-0.9592285,0.2421875,-0.11682129,-0.31860352,-0.16369629,58
6.149292,-5.7678223,11.810303,0.092041016,-0.96191406,0.24414062,-0.11682129,-0.31860352,-0.16369629,59
6.378174,-8.514404,12.496948,0.09375,-0.96606445,0.24584961,-0.11682129,-0.31860352,-0.16333008,60
6.92749,-11.917114,13.900757,0.09423828,-0.96972656,0.24804688,-0.11791992,-0.31713867,-0.16333008,61
6.30188,-14.419556,14.99939,0.09423828,-0.97216797,0.25048828,-0.11791992,-0.31713867,-0.16333008,62
6.790161,-16.952515,15.945435,0.092041016,-0.9733887,0.25268555,-0.11755371,-0.31750488,-0.15930176,63
6.8359375,-18.203735,16.418457,0.08959961,-0.9736328,0.25439453,-0.11755371,-0.31750488,-0.15930176,64
6.3476562,-18.844604,16.89148,0.087402344,-0.9729004,0.25708008,-0.115356445,-0.31311035,-0.16516113,65
6.668091,-19.317627,16.983032,0.083496094,-0.9733887,0.26000977,-0.115356445,-0.31311035,-0.16516113,66
5.844116,-19.16504,17.150879,0.07885742,-0.9758301,0.26391602,-0.115356445,-0.31311035,-0.16516113,67
5.004883,-18.432617,17.745972,0.07543945,-0.9770508,0.26708984,-0.115356445,-0.31567383,-0.15966797,68
3.829956,-17.150879,17.120361,0.07397461,-0.9760742,0.2709961,-0.115356445,-0.31567383,-0.15966797,69
3.829956,-16.26587,16.479492,0.072753906,-0.9765625,0.27270508,-0.11462402,-0.3149414,-0.16040039,70
3.0822754,-16.342163,15.731812,0.0715332,-0.9770508,0.2734375,-0.11462402,-0.3149414,-0.16040039,71
2.5482178,-11.810303,15.50293,0.072753906,-0.97753906,0.27416992,-0.11462402,-0.3149414,-0.16040039,72
1.2359619,-16.25061,15.060425,0.07348633,-0.9790039,0.27319336,-0.11425781,-0.31640625,-0.15600586,73
0.6713867,-16.860962,15.396118,0.076660156,-0.97998047,0.27270508,-0.11425781,-0.31640625,-0.15600586,74
0.39672852,-18.1427,15.319824,0.078125,-0.9794922,0.2705078,-0.114990234,-0.31970215,-0.15966797,75
0.16784668,-19.317627,15.777588,0.079833984,-0.9785156,0.2692871,-0.114990234,-0.31970215,-0.15966797,76
-0.2593994,-20.401001,16.87622,0.08154297,-0.9760742,0.26879883,-0.114990234,-0.31970215,-0.15966797,77
-0.6561279,-21.591187,17.364502,0.08203125,-0.97436523,0.2705078,-0.111694336,-0.3145752,-0.16113281,78
-1.6479492,-22.399902,17.913818,0.080078125,-0.9729004,0.2722168,-0.111694336,-0.3145752,-0.16113281,79
-1.5869141,-23.132324,18.722534,0.07763672,-0.97265625,0.27270508,-0.1138916,-0.3178711,-0.15930176,80
-2.1514893,-23.147583,19.714355,0.07861328,-0.9716797,0.27294922,-0.1138916,-0.3178711,-0.15930176,81
-3.0975342,-23.757935,20.217896,0.078125,-0.9707031,0.2722168,-0.1138916,-0.3178711,-0.15930176,82
-3.829956,-24.765015,20.523071,0.075927734,-0.96972656,0.27001953,-0.111328125,-0.3149414,-0.16333008,83
-7.659912,-24.398804,20.202637,0.075683594,-0.9682617,0.26904297,-0.111328125,-0.3149414,-0.16333008,84
-4.3792725,-25.741577,20.080566,0.07470703,-0.9655762,0.2680664,-0.111328125,-0.3145752,-0.16296387,85
-5.6610107,-26.626587,19.607544,0.07373047,-0.9628906,0.26635742,-0.111328125,-0.3145752,-0.16296387,86
-5.4779053,-28.22876,19.042969,0.072021484,-0.95947266,0.26489258,-0.111328125,-0.31604004,-0.16186523,87
-5.859375,-29.953003,19.088745,0.072265625,-0.9572754,0.2614746,-0.111328125,-0.31604004,-0.16186523,88
-6.6223145,-31.25,18.417358,0.07128906,-0.95751953,0.25756836,-0.111328125,-0.31604004,-0.16186523,89
-6.9732666,-32.974243,17.700195,0.06982422,-0.9604492,0.2548828,-0.1105957,-0.3149414,-0.16333008,90
-8.056641,-34.606934,17.852783,0.068359375,-0.96313477,0.2529297,-0.1105957,-0.3149414,-0.16333008,91
-8.529663,-35.842896,17.120361,0.06738281,-0.9663086,0.25,-0.11279297,-0.3182373,-0.16186523,92
-9.124756,-38.04016,17.303467,0.06689453,-0.9694824,0.24609375,-0.11279297,-0.3182373,-0.16186523,93
-8.926392,-39.70337,16.662598,0.06567383,-0.9729004,0.2409668,-0.11279297,-0.3182373,-0.16186523,94
-9.170532,-40.43579,16.616821,0.064453125,-0.97753906,0.2355957,-0.10986328,-0.31860352,-0.16040039,95
-8.605957,-40.45105,16.326904,0.06201172,-0.98461914,0.23242188,-0.10986328,-0.31860352,-0.16040039,96
-7.8582764,-39.505005,15.441895,0.05493164,-0.9946289,0.22924805,-0.10803223,-0.31750488,-0.16809082,98
-7.019043,-38.116455,15.197754,0.05053711,-0.99658203,0.22729492,-0.10803223,-0.31750488,-0.16809082,99
-7.232666,-35.964966,14.007568,0.04638672,-0.9975586,0.22509766,-0.106933594,-0.31896973,-0.1640625,100
-1.7242432,-22.323608,13.61084,0.05517578,-0.97509766,0.21606445,-0.10473633,-0.31750488,-0.16589355,107
-1.3580322,-23.040771,14.312744,0.057373047,-0.97216797,0.21679688,-0.10473633,-0.31750488,-0.16589355,108
-1.159668,-23.376465,15.2282715,0.059814453,-0.9680176,0.21728516,-0.10473633,-0.3182373,-0.16772461,109
-0.50354004,-25.58899,15.701294,0.0637207,-0.9638672,0.21777344,-0.103271484,-0.3182373,-0.16772461,110
-0.9918213,-27.08435,15.731812,0.06665039,-0.96118164,0.21899414,-0.103271484,-0.3182373,-0.16772461,111
3.8757324,-32.226562,14.282227,0.064208984,-0.9538574,0.21923828,-0.10290527,-0.32080078,-0.16845703,113
0.79345703,-32.943726,13.427734,0.064697266,-0.95166016,0.21850586,-0.103271484,-0.31970215,-0.1673584,114
1.4343262,-35.720825,11.138916,0.06274414,-0.95410156,0.21923828,-0.103271484,-0.31970215,-0.1673584,116
1.876831,-36.2854,10.940552,0.06274414,-0.954834,0.2199707,-0.099975586,-0.31677246,-0.16699219,117
2.1514893,-36.010742,10.375977,0.06323242,-0.9562988,0.22021484,-0.099975586,-0.31677246,-0.16699219,118
3.2958984,-36.346436,10.055542,0.06298828,-0.9584961,0.22241211,-0.099975586,-0.31530762,-0.16442871,119
4.2266846,-36.14807,9.338379,0.06323242,-0.96069336,0.22460938,-0.099975586,-0.31530762,-0.16442871,120
5.0964355,-35.339355,9.475708,0.06616211,-0.96240234,0.22558594,-0.099975586,-0.31530762,-0.16442871,121
6.1950684,-35.232544,9.979248,0.068359375,-0.9628906,0.22680664,-0.10070801,-0.31677246,-0.16918945,122
6.866455,-34.194946,9.674072,0.0690918,-0.96362305,0.22827148,-0.10070801,-0.31677246,-0.16918945,123
9.536743,-31.89087,9.674072,0.06640625,-0.9655762,0.23217773,-0.099243164,-0.32043457,-0.1640625,125
10.055542,-30.456543,9.384155,0.06640625,-0.9663086,0.23339844,-0.099243164,-0.32043457,-0.1640625,126
10.894775,-29.052734,8.911133,0.06640625,-0.9655762,0.23486328,-0.09667969,-0.31640625,-0.16589355,127
11.413574,-27.404785,8.087158,0.06738281,-0.96240234,0.23632812,-0.09667969,-0.31640625,-0.16589355,128
11.657715,-25.848389,11.672974,0.06689453,-0.9584961,0.23828125,-0.09375,-0.31713867,-0.16625977,129
12.039185,-24.047852,6.92749,0.067871094,-0.954834,0.23901367,-0.09375,-0.31713867,-0.16625977,130
13.259888,-22.43042,6.7749023,0.068603516,-0.9519043,0.23925781,-0.09375,-0.31274414,-0.16552734,131
14.129639,-20.385742,6.42395,0.06640625,-0.9526367,0.24169922,-0.095214844,-0.31274414,-0.16552734,132
14.846802,-17.959595,6.7596436,0.064208984,-0.9572754,0.24438477,-0.095214844,-0.31274414,-0.16552734,133
15.899658,-15.655518,7.171631,0.064208984,-0.9609375,0.2475586,-0.091552734,-0.3178711,-0.16113281,134
16.616821,-13.381958,7.965088,0.064697266,-0.9628906,0.2512207,-0.091552734,-0.3178711,-0.16113281,135
17.13562,-11.33728,8.132935,0.06323242,-0.967041,0.25610352,-0.092285156,-0.31420898,-0.15966797,136
17.913818,-8.743286,8.81958,0.060302734,-0.9711914,0.2607422,-0.092285156,-0.31420898,-0.15966797,137
18.52417,-6.8969727,9.887695,0.05883789,-0.97265625,0.26513672,-0.092285156,-0.31420898,-0.15966797,138
19.195557,-4.837036,8.880615,0.057861328,-0.970459,0.2692871,-0.09338379,-0.3109131,-0.1574707,139
19.515991,-3.326416,11.566162,0.056640625,-0.9682617,0.2734375,-0.09338379,-0.3109131,-0.1574707,140
18.951416,-2.7313232,7.507324,0.057128906,-0.96484375,0.2775879,-0.09411621,-0.31018066,-0.15710449,141
18.203735,-0.1373291,5.6762695,0.055908203,-0.9577637,0.28198242,-0.09411621,-0.31018066,-0.15710449,142
17.349243,1.5258789,3.4179688,0.052978516,-0.95288086,0.28515625,-0.09411621,-0.31018066,-0.15710449,143
16.784668,2.4108887,2.243042,0.05419922,-0.9499512,0.28759766,-0.09448242,-0.31311035,-0.15527344,144
13.977051,4.425049,-1.083374,0.055908203,-0.94677734,0.29223633,-0.09118652,-0.3145752,-0.15893555,146
12.054443,4.135132,-1.4190674,0.060302734,-0.9460449,0.29467773,-0.09118652,-0.3145752,-0.15893555,147
10.253906,3.479004,-2.456665,0.06591797,-0.9460449,0.29516602,-0.09118652,-0.3145752,-0.15893555,148
8.300781,1.2207031,-2.8381348,0.06958008,-0.94750977,0.29638672,-0.09448242,-0.31054688,-0.15490723,149
6.286621,-2.029419,-3.036499,0.07446289,-0.9506836,0.29638672,-0.09448242,-0.31054688,-0.15490723,150
-1.9378662,-22.04895,-3.2348633,0.078125,-0.9777832,0.27172852,-0.08898926,-0.30981445,-0.15197754,155
-2.532959,-23.239136,-3.4484863,0.075683594,-0.9785156,0.26733398,-0.088256836,-0.31054688,-0.15637207,156
-3.463745,-23.406982,-3.8604736,0.07421875,-0.9777832,0.26464844,-0.088256836,-0.31054688,-0.15637207,157
-3.326416,-23.117065,-4.0893555,0.07006836,-0.9785156,0.2626953,-0.08862305,-0.30908203,-0.15307617,158
-3.8452148,-21.66748,-4.40979,0.06518555,-0.97924805,0.26098633,-0.08862305,-0.30908203,-0.15307617,159
-3.753662,-20.29419,-4.8980713,0.06225586,-0.97802734,0.2578125,-0.08862305,-0.30908203,-0.15307617,160
-3.2653809,-18.035889,-5.1116943,0.060791016,-0.9753418,0.25561523,-0.08605957,-0.31054688,-0.15454102,161
-3.3721924,-14.678955,-5.5389404,0.057617188,-0.9733887,0.25439453,-0.08605957,-0.31054688,-0.15454102,162
-2.822876,-7.5683594,-7.2021484,0.052978516,-0.9680176,0.2529297,-0.0904541,-0.3079834,-0.15490723,164
-2.6550293,-4.6539307,-7.9345703,0.052246094,-0.9650879,0.25,-0.0904541,-0.3079834,-0.15490723,165
-2.5177002,-2.456665,-8.926392,0.051513672,-0.9614258,0.24804688,-0.08679199,-0.3083496,-0.15600586,166
-2.5787354,-1.159668,-10.269165,0.049560547,-0.95825195,0.24438477,-0.08679199,-0.3083496,-0.15600586,167
-2.380371,-0.2746582,-11.0321045,0.050048828,-0.95532227,0.23950195,-0.08459473,-0.3109131,-0.15344238,168
-2.6397705,0.64086914,-12.527466,0.05029297,-0.9526367,0.2355957,-0.08459473,-0.3109131,-0.15344238,169
-2.0751953,0.50354004,-13.85498,0.050048828,-0.9526367,0.23120117,-0.08459473,-0.3109131,-0.15344238,170
-1.7547607,1.3885498,-14.251709,0.051513672,-0.95458984,0.22924805,-0.08642578,-0.30981445,-0.1508789,171
-1.9378662,1.9378662,-14.846802,0.053955078,-0.9550781,0.22973633,-0.08642578,-0.30981445,-0.1508789,172
-1.663208,1.953125,-15.625,0.055419922,-0.95654297,0.23144531,-0.08459473,-0.3116455,-0.15600586,173
-1.2664795,3.0670166,-15.319824,0.05493164,-0.95874023,0.23242188,-0.08459473,-0.3116455,-0.15600586,174
-0.77819824,6.729126,-15.350342,0.049560547,-0.96484375,0.23120117,-0.08239746,-0.30944824,-0.15710449,176
-0.24414062,8.392334,-15.136719,0.045898438,-0.9682617,0.22973633,-0.08239746,-0.30944824,-0.15710449,177
0.18310547,11.276245,-14.846802,0.041992188,-0.9729004,0.22680664,-0.08312988,-0.3112793,-0.15490723,178
0.39672852,13.015747,-14.61792,0.03930664,-0.9785156,0.2241211,-0.08312988,-0.3112793,-0.15490723,179
0.88500977,14.49585,-14.23645,0.037841797,-0.9819336,0.22167969,-0.08569336,-0.31274414,-0.15563965,180
1.4801025,15.930176,-14.770508,0.038330078,-0.98291016,0.22021484,-0.08569336,-0.31274414,-0.15563965,181
2.1972656,17.288208,-14.770508,0.039794922,-0.9831543,0.21826172,-0.08569336,-0.31274414,-0.15563965,182
3.3569336,18.600464,-15.289307,0.03881836,-0.9831543,0.21704102,-0.084228516,-0.31237793,-0.15600586,183
4.714966,15.838623,-15.808105,0.03491211,-0.98413086,0.21826172,-0.084228516,-0.31237793,-0.15600586,184
5.2490234,22.994995,-16.357422,0.03173828,-0.9855957,0.22045898,-0.083862305,-0.31018066,-0.15783691,185
6.286621,24.70398,-16.38794,0.029785156,-0.98706055,0.22290039,-0.083862305,-0.31018066,-0.15783691,186
6.744385,28.22876,-16.63208,0.029052734,-0.9885254,0.22460938,-0.083862305,-0.31018066,-0.15783691,187
6.9885254,32.226562,-16.63208,0.027832031,-0.99121094,0.2265625,-0.08312988,-0.3112793,-0.15270996,188
7.247925,34.820557,-15.350342,0.024902344,-0.9938965,0.22753906,-0.08312988,-0.3112793,-0.15270996,189
7.583618,37.704468,-14.083862,0.023925781,-0.99731445,0.22924805,-0.08532715,-0.3112793,-0.1508789,190
7.6904297,40.69519,-13.000488,0.025634766,-0.9995117,0.23071289,-0.08532715,-0.3112793,-0.1508789,191
7.3242188,42.388916,-11.917114,0.026123047,-1.0012207,0.2331543,-0.08532715,-0.3112793,-0.1508789,192
7.0648193,44.662476,-10.314941,0.025634766,-1.0019531,0.23608398,-0.088256836,-0.31274414,-0.15307617,193
7.369995,46.12732,-10.543823,0.02319336,-1.0036621,0.24047852,-0.088256836,-0.31274414,-0.15307617,194
6.6833496,48.233032,-9.994507,0.01953125,-1.0063477,0.24536133,-0.08642578,-0.3112793,-0.15307617,195
5.6152344,50.201416,-10.314941,0.013671875,-1.0080566,0.25,-0.08642578,-0.3112793,-0.15307617,196
5.41687,51.9104,-10.635376,0.010498047,-1.0090332,0.25439453,-0.08642578,-0.3112793,-0.15307617,197
4.486084,53.375244,-11.062622,0.0078125,-1.0092773,0.25854492,-0.09082031,-0.3116455,-0.15490723,198
1.9683838,54.122925,-11.856079,0.005859375,-1.0097656,0.2631836,-0.09082031,-0.3116455,-0.15490723,199
0.35095215,53.05481,-13.366699,0.0048828125,-1.0063477,0.2644043,-0.091918945,-0.31054688,-0.15197754,200
-1.5258789,51.712036,-14.266968,0.0048828125,-1.0019531,0.26513672,-0.091918945,-0.31054688,-0.15197754,201
-3.189087,49.37744,-16.159058,0.0061035156,-0.9963379,0.26464844,-0.08898926,-0.3116455,-0.15307617,202
-5.065918,45.88318,-18.4021,0.007080078,-0.9926758,0.26342773,-0.08898926,-0.3116455,-0.15307617,203
-6.5307617,43.045044,-20.462036,0.0061035156,-0.9892578,0.26123047,-0.08898926,-0.3116455,-0.15307617,204
-8.239746,39.764404,-22.399902,0.0053710938,-0.98535156,0.2590332,-0.091918945,-0.31274414,-0.15637207,205
-9.3688965,37.53662,-24.017334,0.0041503906,-0.97924805,0.25634766,-0.091918945,-0.31274414,-0.15637207,206
-10.803223,36.52954,-25.222778,0.0012207031,-0.97387695,0.25341797,-0.09301758,-0.30944824,-0.15600586,207
-12.924194,35.339355,-27.511597,-0.009521484,-0.9633789,0.25024414,-0.09301758,-0.30944824,-0.15600586,209
-14.038086,33.7677,-29.693604,-0.0107421875,-0.96606445,0.2541504,-0.09265137,-0.31274414,-0.15893555,210
-15.350342,33.88977,-30.776978,-0.0087890625,-0.9765625,0.25585938,-0.09265137,-0.31274414,-0.15893555,211
-16.799927,32.226562,-31.49414,-0.0048828125,-0.9868164,0.25439453,-0.091552734,-0.31420898,-0.15600586,212
-18.203735,30.319214,-33.050537,-0.0012207031,-0.99194336,0.2487793,-0.091552734,-0.31420898,-0.15600586,213
-19.012451,31.173706,-33.88977,0.0031738281,-0.9934082,0.24194336,-0.091552734,-0.31420898,-0.15600586,214
-19.180298,24.871826,-35.125732,0.008544922,-0.99487305,0.23657227,-0.095214844,-0.31640625,-0.1607666,215
-21.606445,20.889282,-37.765503,0.041748047,-1.0026855,0.22070312,-0.091552734,-0.31640625,-0.15893555,221
-22.460938,21.575928,-36.331177,0.045654297,-1.0029297,0.21801758,-0.09082031,-0.31970215,-0.16040039,222
-22.67456,22.018433,-36.071777,0.05078125,-1.0026855,0.21655273,-0.09082031,-0.31970215,-0.16040039,223
-23.361206,23.208618,-34.79004,0.057617188,-1.0024414,0.21435547,-0.09118652,-0.32263184,-0.16186523,224
-23.376465,24.032593,-33.843994,0.06323242,-1.0019531,0.21118164,-0.09118652,-0.32263184,-0.16186523,225
-22.109985,25.115967,-32.74536,0.07348633,-0.9975586,0.19873047,-0.08972168,-0.32080078,-0.16113281,227
-20.751953,25.131226,-32.302856,0.080322266,-0.9946289,0.1953125,-0.08972168,-0.32080078,-0.16113281,228
-19.378662,25.497437,-30.807495,0.08544922,-0.9934082,0.19433594,-0.09008789,-0.3218994,-0.1607666,229
-18.966675,25.680542,-29.632568,0.091552734,-0.99365234,0.1940918,-0.09008789,-0.3218994,-0.1607666,230
-17.959595,26.97754,-28.869629,0.099609375,-0.9897461,0.19335938,-0.09008789,-0.3218994,-0.1607666,231
-16.174316,27.84729,-27.679443,0.106933594,-0.9855957,0.19140625,-0.09008789,-0.3218994,-0.16296387,232
-19.012451,27.893066,-24.963379,0.11206055,-0.9868164,0.1887207,-0.09008789,-0.3218994,-0.16296387,233
-14.73999,26.687622,-22.415161,0.11743164,-0.98779297,0.18530273,-0.091552734,-0.32666016,-0.16625977,234
-13.763428,25.238037,-19.332886,0.122802734,-0.98779297,0.18334961,-0.091552734,-0.32666016,-0.16625977,235
-12.329102,23.4375,-14.373779,0.06298828,-0.9836426,0.17919922,-0.091552734,-0.32666016,-0.16625977,236
-10.848999,20.629883,-8.422852,0.13330078,-0.9797363,0.17407227,-0.0904541,-0.32592773,-0.16149902,237
-9.124756,16.113281,-3.7841797,0.13647461,-0.9748535,0.17016602,-0.0904541,-0.32592773,-0.16149902,238
-6.42395,11.688232,1.8005371,0.13720703,-0.9733887,0.16625977,-0.08972168,-0.3251953,-0.1673584,239
-4.5318604,7.293701,7.217407,0.1381836,-0.9765625,0.16455078,-0.08972168,-0.3251953,-0.1673584,240
-2.5482178,1.7852783,13.259888,0.13793945,-0.9819336,0.1616211,-0.08972168,-0.3251953,-0.1673584,241
0.33569336,-2.3498535,19.134521,0.13696289,-0.97998047,0.15991211,-0.09118652,-0.32592773,-0.16625977,242
2.670288,-5.493164,23.345947,0.12841797,-0.9772949,0.15966797,-0.09118652,-0.32592773,-0.16625977,243
4.5166016,-7.217407,27.98462,0.11401367,-0.9782715,0.16088867,-0.09301758,-0.3244629,-0.16516113,244
6.5460205,-7.4920654,31.402588,0.10180664,-0.97680664,0.1628418,-0.09301758,-0.3244629,-0.16516113,245
9.063721,-5.2337646,34.14917,0.091552734,-0.97021484,0.16503906,-0.09301758,-0.3244629,-0.16479492,246
11.489868,-2.7923584,35.995483,0.08129883,-0.96533203,0.16699219,-0.08862305,-0.32592773,-0.16479492,247
13.305664,-3.7384033,37.902832,0.07348633,-0.9633789,0.16918945,-0.08862305,-0.32592773,-0.16479492,248
15.640259,3.2043457,39.33716,0.06738281,-0.9641113,0.17114258,-0.092285156,-0.32263184,-0.16662598,249
17.974854,4.8065186,41.152954,0.06298828,-0.967041,0.17358398,-0.092285156,-0.32263184,-0.16662598,250
19.577026,6.7596436,42.663574,0.061767578,-0.9724121,0.17675781,-0.095214844,-0.31970215,-0.1640625,251
20.645142,8.087158,45.24231,0.059326172,-0.97680664,0.18066406,-0.095214844,-0.31970215,-0.1640625,252
21.072388,7.4920654,47.86682,0.057373047,-0.9790039,0.18383789,-0.095214844,-0.31970215,-0.1640625,253
21.911621,6.1798096,49.453735,0.05810547,-0.9777832,0.18652344,-0.09375,-0.3215332,-0.16625977,254
19.561768,4.211426,50.67444,0.055419922,-0.97680664,0.19067383,-0.09375,-0.3215332,-0.16625977,255
24.70398,1.5411377,51.757812,0.05078125,-0.9770508,0.19384766,-0.099975586,-0.31750488,-0.16040039,0
25.390625,-0.7171631,52.505493,0.047607422,-0.97753906,0.1965332,-0.099975586,-0.31750488,-0.16040039,1
25.939941,-3.036499,53.527832,0.045654297,-0.9770508,0.19848633,-0.099975586,-0.31750488,-0.16040039,2
26.70288,-4.425049,53.878784,0.043945312,-0.97753906,0.2006836,-0.099243164,-0.3178711,-0.16296387,3
31.143188,-6.3934326,54.29077,0.038330078,-0.9814453,0.20385742,-0.099243164,-0.3178711,-0.16296387,4
27.48108,-8.056641,53.878784,0.029541016,-0.986084,0.20947266,-0.104003906,-0.31750488,-0.16625977,5
27.70996,-8.132935,53.31421,0.020263672,-0.9904785,0.21533203,-0.104003906,-0.31750488,-0.16625977,6
26.96228,-7.1258545,52.108765,0.010986328,-0.9929199,0.2199707,-0.104003906,-0.31750488,-0.16625977,7
26.748657,-5.7678223,50.079346,0.0041503906,-0.9938965,0.22631836,-0.107666016,-0.31640625,-0.1640625,8
26.275635,-3.8452148,48.339844,-0.0012207031,-0.9963379,0.23046875,-0.107666016,-0.31640625,-0.1640625,9
25.817871,-2.1209717,45.806885,-0.006591797,-0.9953613,0.234375,-0.10913086,-0.31311035,-0.15856934,10
25.57373,-0.1373291,43.060303,-0.010009766,-0.99365234,0.23754883,-0.10913086,-0.31311035,-0.15856934,11
25.558472,1.663208,40.45105,-0.0146484375,-0.99243164,0.24243164,-0.10913086,-0.31311035,-0.15600586,12
24.719238,2.9754639,36.590576,-0.021484375,-0.9934082,0.18798828,-0.111694336,-0.3116455,-0.15600586,13
23.80371,4.6081543,33.203125,-0.026855469,-0.99560547,0.25830078,-0.111694336,-0.3116455,-0.15600586,14
22.354126,4.8675537,29.99878,-0.032226562,-0.99731445,0.26416016,-0.11279297,-0.31237793,-0.15454102,15
20.401001,4.3640137,25.726318,-0.035888672,-0.99780273,0.26733398,-0.11279297,-0.31237793,-0.15454102,16
18.585205,3.4484863,21.392822,-0.03491211,-0.998291,0.27075195,-0.11206055,-0.30908203,-0.16113281,17
17.37976,1.5106201,17.623901,-0.032714844,-0.9975586,0.27197266,-0.11206055,-0.30908203,-0.16113281,18
15.274048,-1.2817383,14.49585,-0.024902344,-0.99438477,0.27197266,-0.11206055,-0.30908203,-0.16113281,19
13.717651,-2.960205,11.154175,-0.016113281,-0.98950195,0.27124023,-0.11315918,-0.31018066,-0.15527344,20
11.0321045,-8.331299,6.1035156,-0.013427734,-0.9790039,0.27197266,-0.11462402,-0.31274414,-0.15454102,22
9.506226,-9.44519,4.4555664,-0.015380859,-0.97021484,0.27319336,-0.11462402,-0.31274414,-0.15454102,23
7.9803467,-7.9040527,2.8076172,-0.015625,-0.96118164,0.27441406,-0.11462402,-0.31274414,-0.15454102,24
6.4086914,-6.3171387,1.5106201,-0.015625,-0.9555664,0.27563477,-0.11462402,-0.30981445,-0.1508789,25
4.4555664,-4.852295,0.4272461,-0.013916016,-0.9560547,0.27807617,-0.11462402,-0.30981445,-0.1508789,26
3.189087,-2.8076172,-1.6021729,-0.011230469,-0.95996094,0.28125,-0.11352539,-0.3116455,-0.15124512,27
1.0681152,-1.5563965,-2.5024414,-0.005126953,-0.96484375,0.28198242,-0.11352539,-0.3116455,-0.15124512,28
0.2746582,-1.0986328,-3.5552979,0.0034179688,-0.9680176,0.27856445,-0.11352539,-0.3116455,-0.15124512,29
-1.7242432,-1.8157959,-4.6081543,0.0126953125,-0.970459,0.27294922,-0.1138916,-0.30944824,-0.15344238,30
-2.4108887,-2.8381348,-6.3934326,0.020507812,-0.9716797,0.265625,-0.1138916,-0.30944824,-0.15344238,31
-2.7770996,-3.9978027,-8.026123,0.024169922,-0.97314453,0.2590332,-0.111694336,-0.3116455,-0.15490723,32
-4.0893555,-3.0670166,-12.176514,0.027832031,-0.9760742,0.25317383,-0.111694336,-0.3116455,-0.1508789,34
-4.257202,-1.159668,-13.076782,0.030761719,-0.97753906,0.25048828,-0.11279297,-0.3109131,-0.1508789,35
-5.5999756,1.2969971,-14.23645,0.033935547,-0.9770508,0.24804688,-0.11279297,-0.3109131,-0.1508789,36
-6.210327,3.1280518,-15.106201,0.03564453,-0.9765625,0.24560547,-0.111694336,-0.30944824,-0.16003418,37
-6.3934326,5.4779053,-15.472412,0.03955078,-0.97558594,0.24414062,-0.111694336,-0.30944824,-0.16003418,38
-7.446289,6.652832,-15.869141,0.044189453,-0.9760742,0.2409668,-0.110961914,-0.3083496,-0.15930176,39
-7.080078,7.965088,-15.869141,0.048339844,-0.97680664,0.23706055,-0.110961914,-0.3083496,-0.15930176,40
-7.8125,8.224487,-15.594482,0.05126953,-0.9748535,0.23144531,-0.110961914,-0.3083496,-0.15930176,41
-7.8125,9.307861,-15.640259,0.055664062,-0.9682617,0.2211914,-0.110961914,-0.3112793,-0.15856934,43
-7.4768066,9.3688965,-15.213013,0.05859375,-0.9667969,0.21948242,-0.1105957,-0.31384277,-0.1541748,44
-7.446289,9.643555,-15.319824,0.059814453,-0.9667969,0.21777344,-0.1105957,-0.31384277,-0.1541748,45
-7.7056885,8.987427,-15.060425,0.05834961,-0.9675293,0.21533203,-0.1105957,-0.31384277,-0.1541748,46
-8.651733,8.331299,-14.663696,0.056152344,-0.9667969,0.21166992,-0.111694336,-0.31237793,-0.15930176,47
-8.392334,7.7819824,-14.205933,0.053222656,-0.9655762,0.20800781,-0.111694336,-0.31237793,-0.15930176,48
-8.651733,6.881714,-14.053345,0.048828125,-0.96606445,0.20532227,-0.1105957,-0.31237793,-0.15893555,49
-8.81958,4.8980713,-14.144897,0.041992188,-0.9675293,0.20336914,-0.1105957,-0.31237793,-0.15893555,50
-8.850098,3.2196045,-13.702393,0.036621094,-0.96972656,0.20043945,-0.1105957,-0.31237793,-0.15893555,51
-9.460449,0.6866455,-13.702393,0.029785156,-0.9716797,0.19628906,-0.10986328,-0.31274414,-0.16040039,52
-8.407593,-1.4648438,-14.587402,0.025146484,-0.97509766,0.19140625,-0.10986328,-0.31274414,-0.16040039,53
-7.2021484,-6.1798096,-17.288208,0.022216797,-0.9934082,0.18920898,-0.107666016,-0.31311035,-0.16003418,55
-7.156372,-6.8206787,-18.310547,0.01977539,-1.0014648,0.19165039,-0.107666016,-0.31311035,-0.16003418,56
-6.790161,-7.0648193,-21.1792,0.015136719,-1.0061035,0.19311523,-0.110961914,-0.31567383,-0.15710449,57
-6.4849854,-4.333496,-24.20044,0.0126953125,-1.0061035,0.19726562,-0.110961914,-0.31567383,-0.15710449,58
-5.6915283,-0.4119873,-27.832031,0.011474609,-1.0041504,0.20117188,-0.106933594,-0.31384277,-0.15966797,59
-5.4626465,4.562378,-30.807495,0.009765625,-1.0021973,0.20361328,-0.106933594,-0.31384277,-0.15966797,60
-4.8828125,10.040283,-33.325195,0.014404297,-0.99975586,0.20288086,-0.106933594,-0.31347656,-0.15673828,61
-5.3710938,13.809204,-34.2865,0.024169922,-0.9968262,0.19970703,-0.10253906,-0.31347656,-0.15673828,62
-3.4942627,16.708374,-34.14917,0.04345703,-0.9926758,0.19628906,-0.103637695,-0.31420898,-0.16186523,64
-2.5787354,17.166138,-32.485962,0.055419922,-0.99072266,0.1965332,-0.103637695,-0.31420898,-0.16186523,65
-2.9754639,17.089844,-30.090332,0.06591797,-0.98583984,0.1977539,-0.10253906,-0.3149414,-0.15893555,66
-2.319336,16.311646,-28.305054,0.072021484,-0.9785156,0.19848633,-0.10253906,-0.3149414,-0.15893555,67
-1.4038086,15.029907,-25.741577,0.07397461,-0.9719238,0.19921875,-0.10253906,-0.3149414,-0.15893555,68
-0.091552734,15.12146,-22.81189,0.076660156,-0.967041,0.20092773,-0.10070801,-0.31933594,-0.15966797,69
0.6713867,14.953613,-20.507812,0.07885742,-0.96313477,0.20288086,-0.10070801,-0.31933594,-0.15966797,70
0.74768066,15.304565,-18.310547,0.076660156,-0.9621582,0.20361328,-0.09667969,-0.31201172,-0.16333008,71
1.3580322,16.494751,-16.296387,0.07324219,-0.9621582,0.20532227,-0.09667969,-0.31201172,-0.16333008,72
1.4953613,18.249512,-15.274048,0.06958008,-0.9628906,0.20776367,-0.09667969,-0.31201172,-0.16333008,73
1.7547607,19.378662,-13.442993,0.068359375,-0.96606445,0.21044922,-0.1003418,-0.31640625,-0.15966797,74
2.39563,21.118164,-12.969971,0.06665039,-0.97021484,0.21264648,-0.1003418,-0.31640625,-0.15966797,75
2.0751953,21.087646,-11.932373,0.06225586,-0.9753418,0.21435547,-0.099975586,-0.31713867,-0.15673828,76
2.4871826,21.865845,-10.940552,0.05834961,-0.9785156,0.21557617,-0.099975586,-0.31713867,-0.15673828,77
2.39563,21.347046,-10.147095,0.057861328,-0.98095703,0.21582031,-0.099975586,-0.31713867,-0.15673828,78
2.9449463,21.270752,-9.628296,0.057128906,-0.984375,0.21704102,-0.09851074,-0.31604004,-0.15856934,79
2.380371,20.080566,-9.307861,0.055419922,-0.98657227,0.21655273,-0.09851074,-0.31604004,-0.15856934,80
3.2958984,17.837524,-11.672974,0.05078125,-0.98999023,0.2199707,-0.1003418,-0.3145752,-0.15820312,82
2.8686523,16.601562,-7.507324,0.050048828,-0.9914551,0.22290039,-0.1003418,-0.31384277,-0.1607666,83
2.090454,16.052246,-7.7209473,0.04711914,-0.99121094,0.22509766,-0.10217285,-0.31384277,-0.1607666,84
2.4261475,15.74707,-8.071899,0.041992188,-0.9892578,0.22607422,-0.10217285,-0.31384277,-0.1607666,85
2.2277832,16.37268,-7.797241,0.03955078,-0.98583984,0.22583008,-0.099243164,-0.31604004,-0.15637207,86
1.3275146,16.204834,-8.117676,0.036621094,-0.9812012,0.22436523,-0.099243164,-0.31604004,-0.15637207,87
2.090454,16.662598,-8.056641,0.033935547,-0.9785156,0.22314453,-0.10144043,-0.31640625,-0.1574707,88
2.2583008,16.662598,-7.507324,0.033447266,-0.9772949,0.22216797,-0.10144043,-0.31640625,-0.1574707,89
1.7547607,16.51001,-7.1411133,0.033203125,-0.9758301,0.22070312,-0.10144043,-0.31640625,-0.1574707,90
2.0446777,16.784668,-6.1798096,0.030517578,-0.97436523,0.2211914,-0.099243164,-0.31567383,-0.15637207,91
2.3345947,17.364502,-5.493164,0.028808594,-0.9736328,0.22192383,-0.099243164,-0.31567383,-0.15637207,92
2.2735596,18.28003,-3.6621094,0.0234375,-0.9724121,0.22460938,-0.099243164,-0.31420898,-0.15527344,94
2.4261475,18.829346,-3.5858154,0.01953125,-0.97314453,0.22558594,-0.099243164,-0.31420898,-0.15527344,95
2.319336,18.78357,-3.0670166,0.017089844,-0.9746094,0.22583008,-0.099975586,-0.31750488,-0.15563965,96
1.8920898,19.79065,-2.8686523,0.016601562,-0.9758301,0.22583008,-0.099975586,-0.31750488,-0.15563965,97
1.9226074,19.104004,-2.960205,0.016113281,-0.9770508,0.22509766,-0.10180664,-0.31970215,-0.15820312,98
2.2888184,18.90564,-3.0059814,0.016357422,-0.97875977,0.22485352,-0.10180664,-0.31970215,-0.15820312,99
1.3580322,18.829346,-3.6010742,0.016113281,-0.9794922,0.22509766,-0.10180664,-0.31970215,-0.15820312,100
1.663208,17.959595,-4.501343,0.014160156,-0.9790039,0.22485352,-0.099609375,-0.31970215,-0.15966797,101
0.77819824,17.669678,-4.4555664,0.0126953125,-0.9785156,0.22485352,-0.099609375,-0.31970215,-0.15966797,102
1.0375977,17.288208,-5.264282,0.011230469,-0.9782715,0.2241211,-0.106933594,-0.32080078,-0.15856934,103
0.579834,16.815186,-5.4016113,0.009521484,-0.9785156,0.22436523,-0.106933594,-0.32080078,-0.15856934,104
0.44250488,17.074585,-5.2948,0.009521484,-0.97924805,0.22314453,-0.106933594,-0.32080078,-0.1574707,105
0.061035156,16.571045,-5.340576,0.010498047,-0.97924805,0.22143555,-0.103271484,-0.31860352,-0.1574707,106
0.38146973,16.082764,-5.1879883,0.010986328,-0.9790039,0.22045898,-0.103271484,-0.31860352,-0.1574707,107
0.4272461,15.50293,-5.508423,0.009521484,-0.97998047,0.2199707,-0.10437012,-0.31860352,-0.15783691,108
0.015258789,15.869141,-5.0964355,0.0068359375,-0.9794922,0.21948242,-0.10437012,-0.31860352,-0.15783691,109
0.19836426,16.326904,-5.218506,0.0053710938,-0.97875977,0.2175293,-0.10217285,-0.31860352,-0.15783691,110
0.30517578,17.715454,-5.218506,0.007080078,-0.97924805,0.21557617,-0.10217285,-0.31860352,-0.15783691,111
0.6561279,17.364502,-5.3710938,0.008300781,-0.98095703,0.21411133,-0.10217285,-0.31860352,-0.15783691,112
0.4119873,18.447876,-5.432129,0.0061035156,-0.98291016,0.21313477,-0.10510254,-0.31896973,-0.15600586,113
0.79345703,18.829346,-5.340576,0.005126953,-0.982666,0.2121582,-0.10510254,-0.31896973,-0.15600586,114
0.9613037,18.920898,-5.8898926,0.0056152344,-0.9814453,0.21118164,-0.10583496,-0.31933594,-0.15820312,115
1.3427734,18.554688,-6.3476562,0.0053710938,-0.9819336,0.20874023,-0.10583496,-0.31933594,-0.15820312,116
1.2969971,18.341064,-6.134033,0.0087890625,-0.98291016,0.20678711,-0.10583496,-0.31933594,-0.15820312,117
1.373291,19.180298,-6.3171387,0.010009766,-0.984375,0.20703125,-0.10656738,-0.3218994,-0.1607666,118
0.2593994,18.508911,-6.454468,0.008300781,-0.9868164,0.20874023,-0.10656738,-0.3218994,-0.1607666,119
0.7019043,18.112183,-6.2561035,0.0073242188,-0.9855957,0.2109375,-0.10913086,-0.31896973,-0.1541748,120
0.88500977,17.349243,-6.378174,0.008300781,-0.9831543,0.21191406,-0.10913086,-0.31896973,-0.1541748,121
1.7700195,16.601562,-6.652832,0.009765625,-0.98339844,0.20996094,-0.10913086,-0.31896973,-0.1541748,122
0.9765625,15.24353,-6.5307617,0.010986328,-0.9848633,0.20629883,-0.10839844,-0.31713867,-0.15930176,123
1.0528564,13.427734,-6.30188,0.012451172,-0.986084,0.20410156,-0.10839844,-0.31713867,-0.15930176,124
1.4038086,12.237549,-6.4849854,0.0126953125,-0.9863281,0.20288086,-0.110961914,-0.31970215,-0.15637207,125
1.9989014,11.581421,-6.4849854,0.010498047,-0.98657227,0.20458984,-0.110961914,-0.31970215,-0.15637207,126
2.2735596,12.008667,-6.92749,0.009521484,-0.98706055,0.20629883,-0.110961914,-0.31970215,-0.15637207,127
2.89917,12.130737,-7.3242188,0.0075683594,-0.98657227,0.20776367,-0.10986328,-0.3145752,-0.15673828,128
2.5482178,12.9852295,-7.4310303,0.0053710938,-0.98583984,0.20898438,-0.10986328,-0.3145752,-0.15673828,129
2.5939941,14.511108,-7.4768066,0.004638672,-0.986084,0.20825195,-0.10949707,-0.31567383,-0.15673828,130
2.7313232,15.472412,-7.2631836,0.0053710938,-0.9875488,0.20800781,-0.10949707,-0.31567383,-0.15673828,131
3.2806396,15.762329,-7.4768066,0.0068359375,-0.9885254,0.20703125,-0.10949707,-0.31677246,-0.15893555,132
2.960205,16.281128,-7.4920654,0.008056641,-0.99072266,0.20581055,-0.106933594,-0.31677246,-0.15893555,133
3.3111572,15.838623,-7.4005127,0.01171875,-0.9914551,0.20507812,-0.106933594,-0.31677246,-0.15893555,134
3.0822754,15.289307,-6.729126,0.016357422,-0.9885254,0.2055664,-0.10546875,-0.31604004,-0.15893555,135
3.326416,14.11438,-6.072998,0.01953125,-0.986084,0.20654297,-0.10546875,-0.31604004,-0.15893555,136
3.829956,12.60376,-5.7525635,0.019042969,-0.98535156,0.20776367,-0.106933594,-0.31677246,-0.15710449,137
3.5705566,11.703491,-5.1116943,0.020507812,-0.98535156,0.20922852,-0.106933594,-0.31677246,-0.15710449,138
3.6315918,11.154175,-4.5928955,0.020996094,-0.9863281,0.21142578,-0.106933594,-0.31677246,-0.15710449,139
3.5858154,10.7421875,-4.638672,0.020263672,-0.98779297,0.21166992,-0.10656738,-0.3178711,-0.15710449,140
3.3721924,10.894775,-4.5776367,0.019042969,-0.9885254,0.21264648,-0.10656738,-0.3178711,-0.15710449,141
3.326416,10.879517,-4.5318604,0.018554688,-0.9868164,0.21289062,-0.10510254,-0.31750488,-0.15527344,142
3.250122,11.672974,-4.5928955,0.018798828,-0.984375,0.21289062,-0.10510254,-0.31750488,-0.15527344,143
3.4942627,11.413574,-4.714966,0.017089844,-0.9838867,0.21313477,-0.10510254,-0.31750488,-0.15527344,144
3.6773682,11.199951,-4.40979,0.016845703,-0.984375,0.2133789,-0.106933594,-0.3145752,-0.15783691,145
3.2958984,12.1154785,-3.7841797,0.01953125,-0.9848633,0.21386719,-0.106933594,-0.3145752,-0.15783691,146
3.6010742,11.245728,-2.4719238,0.021240234,-0.98535156,0.21484375,-0.10656738,-0.31237793,-0.15820312,147
3.189087,11.520386,-1.5869141,0.020751953,-0.98706055,0.21606445,-0.10656738,-0.31237793,-0.15820312,148
3.0822754,10.83374,-1.0070801,0.019042969,-0.98706055,0.2175293,-0.10656738,-0.31237793,-0.15820312,149
3.036499,10.681152,-0.12207031,0.020263672,-0.98657227,0.21728516,-0.10620117,-0.31274414,-0.15930176,150GX,GY,GZ,AX,AY,AZ,MX,MY,MZ,TS
2.8686523,10.604858,-0.076293945,0.020507812,-0.9885254,0.21655273,-0.10620117,-0.31274414,-0.15930176,151
2.0141602,9.750366,-0.16784668,0.01977539,-0.9904785,0.21557617,-0.10510254,-0.3112793,-0.15563965,152
2.090454,8.7890625,-0.5493164,0.020751953,-0.9890137,0.21484375,-0.10510254,-0.3112793,-0.15563965,153
2.2735596,7.6293945,-0.7324219,0.0234375,-0.9875488,0.21435547,-0.10510254,-0.31420898,-0.15490723,154
2.39563,6.6986084,-1.1901855,0.026123047,-0.98876953,0.21240234,-0.10473633,-0.31420898,-0.15490723,155
2.4719238,5.508423,-0.32043457,0.029541016,-0.9892578,0.2097168,-0.10473633,-0.31420898,-0.15490723,156
2.3498535,4.562378,-3.6315918,0.031982422,-0.9897461,0.20825195,-0.10510254,-0.31420898,-0.15673828,157
1.8310547,3.9520264,1.2817383,0.033691406,-0.9904785,0.20776367,-0.10510254,-0.31420898,-0.15673828,158
1.3427734,3.2653809,2.029419,0.036132812,-0.99121094,0.20654297,-0.107666016,-0.3149414,-0.15856934,159
1.3427734,3.616333,3.6315918,0.03857422,-0.99072266,0.20507812,-0.107666016,-0.3149414,-0.15856934,160
1.8920898,3.6621094,4.7302246,0.040039062,-0.9897461,0.20458984,-0.107666016,-0.3149414,-0.15856934,161
2.3498535,3.1738281,5.79834,0.038330078,-0.99072266,0.20507812,-0.10656738,-0.31274414,-0.15673828,162
2.1972656,3.112793,6.4849854,0.036376953,-0.99121094,0.20532227,-0.10656738,-0.31274414,-0.15673828,163
2.89917,3.0975342,6.866455,0.03466797,-0.9914551,0.20532227,-0.10986328,-0.31384277,-0.15600586,164
2.8533936,2.8686523,7.385254,0.03466797,-0.99121094,0.20458984,-0.10986328,-0.31384277,-0.15600586,165
2.9296875,1.953125,7.8125,0.03564453,-0.9902344,0.20214844,-0.10986328,-0.31384277,-0.15600586,166
2.7313232,3.0517578,3.9215088,0.03540039,-0.9885254,0.20263672,-0.11022949,-0.3149414,-0.15820312,167
2.9449463,2.1362305,7.9803467,0.033447266,-0.9902344,0.2043457,-0.11022949,-0.3149414,-0.15820312,168
2.5939941,1.2664795,8.117676,0.032714844,-0.99194336,0.20532227,-0.10913086,-0.3145752,-0.15783691,169
2.1362305,0.74768066,8.651733,0.032958984,-0.9904785,0.20532227,-0.10913086,-0.3145752,-0.15783691,170
1.7700195,0.2746582,9.0789795,0.034423828,-0.98876953,0.203125,-0.10913086,-0.3145752,-0.15783691,171
1.9378662,-0.7324219,9.216309,0.034423828,-0.9880371,0.20166016,-0.10913086,-0.31384277,-0.15710449,172
1.6937256,-1.2817383,9.857178,0.03540039,-0.9875488,0.20166016,-0.10913086,-0.31384277,-0.15710449,173
1.1138916,-2.3498535,10.269165,0.03564453,-0.9873047,0.20288086,-0.110961914,-0.31274414,-0.16040039,174
1.7700195,-3.7841797,10.604858,0.037109375,-0.9875488,0.20361328,-0.110961914,-0.31274414,-0.16040039,175
1.8463135,-4.470825,10.726929,0.0390625,-0.98779297,0.20336914,-0.110961914,-0.31274414,-0.15563965,176
2.39563,-5.996704,11.611938,0.039794922,-0.98999023,0.20288086,-0.11315918,-0.31567383,-0.15563965,177
2.0141602,-6.4849854,12.054443,0.040771484,-0.9909668,0.20239258,-0.11315918,-0.31567383,-0.15563965,178
1.9226074,-5.645752,12.237549,0.040527344,-0.9892578,0.20263672,-0.11352539,-0.31677246,-0.15710449,179
2.2735596,-5.203247,12.481689,0.03881836,-0.9875488,0.203125,-0.11352539,-0.31677246,-0.15710449,180
2.746582,-5.4473877,13.015747,0.038085938,-0.9868164,0.20410156,-0.11315918,-0.31677246,-0.16040039,181
2.4719238,-4.547119,14.160156,0.041503906,-0.986084,0.20629883,-0.11315918,-0.31677246,-0.16040039,182
2.5787354,-4.852295,14.73999,0.04321289,-0.9855957,0.20727539,-0.11315918,-0.31677246,-0.16040039,183
2.3040771,-5.8135986,15.701294,0.044677734,-0.98535156,0.20751953,-0.11315918,-0.31384277,-0.15490723,184
1.6326904,-6.5612793,17.37976,0.049804688,-0.98413086,0.20922852,-0.11315918,-0.31384277,-0.15490723,185
1.449585,-8.4991455,18.371582,0.053222656,-0.9838867,0.20996094,-0.115356445,-0.31567383,-0.15673828,186
1.4801025,-10.848999,19.760132,0.052978516,-0.98657227,0.21166992,-0.115356445,-0.31567383,-0.15673828,187
1.0375977,-13.2751465,20.904541,0.053222656,-0.9909668,0.21533203,-0.115356445,-0.31567383,-0.15673828,188
0.076293945,-14.511108,21.148682,0.052246094,-0.99365234,0.22021484,-0.11755371,-0.31604004,-0.16149902,189
-0.7171631,-15.853882,20.523071,0.049316406,-0.99560547,0.2253418,-0.11755371,-0.31604004,-0.16149902,190
-2.39563,-16.677856,19.439697,0.048095703,-0.9968262,0.2265625,-0.11462402,-0.31604004,-0.15930176,191
-2.7008057,-17.105103,18.78357,0.04736328,-0.99560547,0.2265625,-0.11462402,-0.31604004,-0.15930176,192
-3.2348633,-19.104004,16.815186,0.045410156,-0.9941406,0.22387695,-0.11462402,-0.31604004,-0.15930176,193
-5.0354004,-21.911621,13.214111,0.04248047,-0.9909668,0.2163086,-0.11645508,-0.31640625,-0.15490723,196
-5.218506,-20.721436,11.749268,0.036376953,-0.98657227,0.2163086,-0.11645508,-0.31640625,-0.15490723,197
-5.2490234,-17.715454,10.772705,0.032958984,-0.9812012,0.21679688,-0.11645508,-0.31640625,-0.15490723,198
-4.776001,-14.968872,9.887695,0.030029297,-0.97558594,0.21704102,-0.11425781,-0.31384277,-0.15710449,199
-4.928589,-13.381958,9.506226,0.029541016,-0.9736328,0.21606445,-0.11425781,-0.31384277,-0.15710449,200
-4.5776367,-11.59668,9.658813,0.029785156,-0.9733887,0.21435547,-0.114990234,-0.3149414,-0.15710449,201
-4.3182373,-11.001587,10.177612,0.032714844,-0.97509766,0.21191406,-0.114990234,-0.3149414,-0.15710449,202
-4.3029785,-10.940552,10.620117,0.036376953,-0.9758301,0.20874023,-0.11315918,-0.31567383,-0.15710449,203
-4.180908,-12.1154785,10.955811,0.037353516,-0.97753906,0.20532227,-0.11315918,-0.31567383,-0.15710449,204
-3.9215088,-12.832642,11.09314,0.036621094,-0.9782715,0.20166016,-0.11315918,-0.31567383,-0.15710449,205
-3.9520264,-14.190674,11.184692,0.03564453,-0.97753906,0.19970703,-0.110961914,-0.3178711,-0.16040039,206
-3.90625,-14.312744,10.604858,0.034179688,-0.97631836,0.19970703,-0.110961914,-0.3178711,-0.16040039,207
-2.4414062,-15.884399,9.963989,0.032470703,-0.97631836,0.19970703,-0.11279297,-0.3178711,-0.15966797,208
-1.953125,-15.197754,9.002686,0.03100586,-0.97753906,0.2019043,-0.11279297,-0.3178711,-0.15966797,209
-2.0141602,-14.23645,8.483887,0.027832031,-0.9794922,0.203125,-0.11279297,-0.3178711,-0.15966797,210
-1.9683838,-13.961792,7.4005127,0.024169922,-0.98095703,0.20385742,-0.111328125,-0.3145752,-0.15820312,211
-1.1291504,-12.557983,7.2631836,0.02368164,-0.9819336,0.20483398,-0.111328125,-0.3145752,-0.15820312,212
-1.159668,-11.886597,7.3547363,0.026855469,-0.9819336,0.20458984,-0.111694336,-0.31420898,-0.15893555,213
-1.0223389,-11.077881,7.0343018,0.030273438,-0.98217773,0.20458984,-0.111694336,-0.31420898,-0.15893555,214
-1.1901855,-11.474609,7.0495605,0.033203125,-0.982666,0.20532227,-0.111694336,-0.31420898,-0.15893555,215
-0.39672852,-11.672974,6.790161,0.036376953,-0.9814453,0.20800781,-0.110961914,-0.31713867,-0.15966797,216
-0.44250488,-13.259888,7.003784,0.039794922,-0.97924805,0.2097168,-0.110961914,-0.31713867,-0.15966797,217
0.2593994,-14.923096,6.591797,0.04321289,-0.97802734,0.20947266,-0.111694336,-0.3182373,-0.15820312,218
-0.38146973,-15.167236,5.996704,0.047607422,-0.9772949,0.2097168,-0.111694336,-0.3182373,-0.15820312,219
-0.22888184,-16.113281,5.218506,0.048828125,-0.9765625,0.20922852,-0.111694336,-0.3182373,-0.15820312,220
-0.45776367,-16.845703,4.776001,0.047607422,-0.97802734,0.20898438,-0.11279297,-0.31640625,-0.1574707,221
0.16784668,-17.730713,4.1656494,0.049316406,-0.9790039,0.20898438,-0.11279297,-0.31640625,-0.1574707,222
0.30517578,-17.105103,3.9520264,0.052734375,-0.98046875,0.21044922,-0.11352539,-0.31420898,-0.16296387,223
-0.35095215,-16.235352,3.5552979,0.05493164,-0.9807129,0.21362305,-0.11352539,-0.31420898,-0.16296387,224
-0.076293945,-14.511108,3.2806396,0.056640625,-0.9797363,0.21655273,-0.11352539,-0.31567383,-0.16003418,225
-0.5645752,-12.527466,3.6010742,0.05859375,-0.97680664,0.2175293,-0.10839844,-0.31567383,-0.16003418,226
-0.015258789,-11.932373,3.8909912,0.06274414,-0.9716797,0.21728516,-0.10839844,-0.31567383,-0.16003418,227
0.091552734,-11.276245,4.211426,0.06640625,-0.96875,0.21655273,-0.107299805,-0.31750488,-0.15820312,228
0.7019043,-10.635376,5.79834,0.071777344,-0.9680176,0.2163086,-0.107299805,-0.31750488,-0.15820312,229
0.9460449,-10.437012,6.8969727,0.07885742,-0.9680176,0.21582031,-0.10620117,-0.31567383,-0.15820312,230
1.5258789,-10.650635,8.422852,0.084472656,-0.9694824,0.21386719,-0.10620117,-0.31567383,-0.15820312,231
1.4343262,-12.283325,10.391235,0.08911133,-0.9711914,0.21118164,-0.10620117,-0.31567383,-0.15820312,232
1.9683838,-13.290405,12.1154785,0.091552734,-0.9707031,0.20874023,-0.10839844,-0.31750488,-0.15820312,233
2.2735596,-14.389038,13.519287,0.09106445,-0.970459,0.20947266,-0.10839844,-0.31750488,-0.15820312,234
2.4108887,-14.007568,14.266968,0.08959961,-0.9741211,0.21191406,-0.10913086,-0.31530762,-0.15930176,235
2.9296875,-13.35144,14.846802,0.087890625,-0.9770508,0.21313477,-0.10913086,-0.31530762,-0.15930176,236
3.2043457,-12.527466,16.204834,0.088378906,-0.97753906,0.21240234,-0.10913086,-0.31530762,-0.15930176,237
3.3874512,-11.09314,16.693115,0.088378906,-0.9758301,0.21166992,-0.107666016,-0.31604004,-0.15783691,238
4.425049,-9.32312,17.593384,0.087402344,-0.97680664,0.21191406,-0.107666016,-0.31604004,-0.15783691,239
4.5166016,-8.041382,17.8833,0.08886719,-0.98095703,0.21313477,-0.10546875,-0.31347656,-0.15600586,240
4.5166016,-5.6915283,19.27185,0.09350586,-0.9838867,0.21533203,-0.10546875,-0.31347656,-0.15600586,241
4.470825,-4.9591064,20.141602,0.10131836,-0.9851074,0.21655273,-0.10546875,-0.31347656,-0.15600586,242
4.5928955,-4.8065186,21.42334,0.106933594,-0.98583984,0.21484375,-0.10949707,-0.31384277,-0.1607666,243
6.8206787,-7.583618,28.747559,0.13354492,-0.9819336,0.20996094,-0.10839844,-0.31640625,-0.16259766,247
7.385254,-7.965088,31.204224,0.14013672,-0.98339844,0.20996094,-0.11352539,-0.31420898,-0.16259766,248
7.6904297,-8.178711,33.38623,0.14282227,-0.98535156,0.21142578,-0.11352539,-0.31420898,-0.16259766,249
8.224487,-8.880615,35.88867,0.14404297,-0.99072266,0.21411133,-0.111328125,-0.3112793,-0.1607666,250
7.659912,-9.399414,37.857056,0.14477539,-0.9938965,0.2175293,-0.111328125,-0.3112793,-0.1607666,251
8.224487,-10.1623535,39.29138,0.14624023,-0.99438477,0.21899414,-0.11242676,-0.31201172,-0.15637207,252
7.9956055,-12.145996,41.82434,0.15625,-0.9941406,0.22045898,-0.11242676,-0.31201172,-0.15637207,253
8.117676,-15.50293,42.69409,0.16601562,-0.9958496,0.21850586,-0.11242676,-0.31201172,-0.15637207,254
7.537842,-25.08545,46.569824,0.1887207,-1.0041504,0.20922852,-0.11682129,-0.31274414,-0.15966797,0
6.3323975,-29.830933,49.02649,0.19897461,-1.0029297,0.20410156,-0.11645508,-0.30871582,-0.15673828,1
6.6070557,-34.561157,51.04065,0.19897461,-0.9995117,0.20117188,-0.11645508,-0.30871582,-0.15673828,2
7.1105957,-38.894653,53.57361,0.1940918,-0.9951172,0.20117188,-0.11645508,-0.30871582,-0.15673828,3
7.4157715,-39.93225,55.221558,0.18896484,-0.9897461,0.2055664,-0.11828613,-0.30908203,-0.15600586,4
8.880615,-39.016724,55.67932,0.18408203,-0.98950195,0.2109375,-0.11828613,-0.30908203,-0.15600586,5
7.4157715,-34.347534,56.19812,0.18139648,-0.99194336,0.21386719,-0.12011719,-0.31384277,-0.15673828,6
7.1868896,-29.98352,56.47278,0.17895508,-0.99194336,0.2163086,-0.12011719,-0.31384277,-0.15673828,7
7.6446533,-25.283813,55.923462,0.17871094,-0.9873047,0.21655273,-0.12011719,-0.31384277,-0.15673828,8
8.041382,-20.309448,55.282593,0.1809082,-0.98168945,0.21826172,-0.1204834,-0.3112793,-0.1574707,9
8.804321,-17.700195,55.130005,0.18237305,-0.9794922,0.22265625,-0.1204834,-0.3112793,-0.1574707,10
9.658813,-15.716553,53.009033,0.18261719,-0.97998047,0.22851562,-0.12158203,-0.31018066,-0.15710449,11
7.0343018,-5.4779053,54.901123,0.20507812,-0.9724121,0.22216797,-0.12231445,-0.3112793,-0.1607666,15
7.888794,-4.776001,55.252075,0.20678711,-0.96875,0.22094727,-0.12561035,-0.31054688,-0.15637207,16
3.0517578,1.7547607,58.181763,0.18530273,-0.970459,0.23022461,-0.13256836,-0.31054688,-0.1574707,21
3.0059814,-0.21362305,57.418823,0.18139648,-0.9692383,0.22583008,-0.13256836,-0.31054688,-0.1574707,22
2.5177002,-2.5024414,57.2052,0.18676758,-0.9663086,0.22143555,-0.13256836,-0.3112793,-0.15856934,23
2.8686523,-4.776001,55.603027,0.19067383,-0.9638672,0.21704102,-0.13256836,-0.3112793,-0.15856934,24
3.3874512,-9.750366,54.06189,0.18676758,-0.96533203,0.21533203,-0.13256836,-0.3112793,-0.15856934,25
3.7384033,-12.496948,51.940918,0.17797852,-0.967041,0.21655273,-0.13513184,-0.30944824,-0.15966797,26
3.0059814,-14.251709,49.49951,0.16503906,-0.9663086,0.21679688,-0.13513184,-0.30944824,-0.15966797,27
1.9073486,-16.12854,48.14148,0.15429688,-0.9638672,0.21313477,-0.13696289,-0.31201172,-0.1574707,28
1.9073486,-15.335083,46.218872,0.15014648,-0.9584961,0.21044922,-0.13696289,-0.31201172,-0.1574707,29
1.5258789,-13.99231,43.96057,0.14355469,-0.9555664,0.20874023,-0.13696289,-0.31201172,-0.1574707,30
1.9836426,-14.3585205,40.69519,0.1315918,-0.95654297,0.21044922,-0.14099121,-0.3112793,-0.15563965,31
0.9613037,-13.35144,38.223267,0.12426758,-0.9592285,0.21435547,-0.14099121,-0.3112793,-0.15563965,32
0.12207031,-12.268066,35.247803,0.12426758,-0.96240234,0.21655273,-0.14172363,-0.31237793,-0.15820312,33
-0.45776367,-10.681152,31.723022,0.123535156,-0.9650879,0.21582031,-0.14172363,-0.31237793,-0.15820312,34
-1.2969971,-8.81958,28.030396,0.115722656,-0.96435547,0.21435547,-0.14172363,-0.31237793,-0.15820312,35
-1.7700195,-7.171631,23.086548,0.10449219,-0.9621582,0.21264648,-0.140625,-0.31237793,-0.15527344,36
-1.9683838,-4.8828125,17.837524,0.09790039,-0.9592285,0.2133789,-0.140625,-0.31237793,-0.15527344,37
-1.4190674,-9.963989,0.8239746,0.14648438,-0.9355469,0.1928711,-0.1439209,-0.3112793,-0.15490723,42
-1.159668,-11.734009,-0.4119873,0.14672852,-0.9333496,0.1928711,-0.14501953,-0.3116455,-0.16003418,43
-0.8392334,-12.832642,-1.9073486,0.14526367,-0.93066406,0.19482422,-0.14501953,-0.3116455,-0.16003418,44
-0.6866455,-14.007568,-3.7231445,0.14526367,-0.92871094,0.19677734,-0.14355469,-0.31384277,-0.16186523,45
-0.9918213,-13.61084,-6.088257,0.14526367,-0.9301758,0.1977539,-0.14355469,-0.31384277,-0.16186523,46
0.9918213,-6.9122314,-25.131226,0.1640625,-0.93896484,0.18945312,-0.14025879,-0.3116455,-0.15930176,51
1.953125,-4.8980713,-28.259277,0.17480469,-0.9379883,0.18530273,-0.14025879,-0.3116455,-0.15930176,52
3.0975342,-3.6010742,-30.24292,0.18310547,-0.9421387,0.18261719,-0.1373291,-0.31201172,-0.16040039,53
3.7078857,-1.2817383,-30.74646,0.19262695,-0.9484863,0.18139648,-0.1373291,-0.31201172,-0.16040039,54
3.1585693,0.93078613,-30.029297,0.20776367,-0.951416,0.18286133,-0.13549805,-0.31311035,-0.16149902,55
5.065918,2.6397705,-27.420044,0.2265625,-0.95996094,0.18701172,-0.13549805,-0.31311035,-0.16149902,57
5.6762695,3.5247803,-25.177002,0.23852539,-0.9621582,0.18969727,-0.13330078,-0.30981445,-0.15856934,58
6.515503,3.4484863,-24.002075,0.24902344,-0.9633789,0.18945312,-0.13330078,-0.30981445,-0.15856934,59
7.2021484,3.3721924,-22.354126,0.25561523,-0.96362305,0.18823242,-0.13696289,-0.31018066,-0.15490723,60
8.651733,3.3721924,-21.087646,0.26098633,-0.9614258,0.18920898,-0.13696289,-0.31018066,-0.15490723,61
11.306763,18.432617,-18.1427,0.2685547,-0.9641113,0.21264648,-0.1307373,-0.31237793,-0.15966797,66
11.062622,20.721436,-15.930176,0.27514648,-0.9663086,0.21118164,-0.13220215,-0.3109131,-0.15527344,67
9.536743,22.720337,-14.297485,0.2854004,-0.9628906,0.21044922,-0.13220215,-0.3109131,-0.15527344,68
9.521484,23.132324,-10.818481,0.29638672,-0.9602051,0.2097168,-0.13220215,-0.3109131,-0.15527344,69
9.70459,22.04895,-8.163452,0.30004883,-0.95947266,0.2109375,-0.1340332,-0.30908203,-0.15893555,70
10.238647,20.6604,-6.088257,0.29858398,-0.95874023,0.21362305,-0.1340332,-0.30908203,-0.15893555,71
10.131836,15.472412,2.960205,0.2956543,-0.95874023,0.21264648,-0.13439941,-0.31054688,-0.15563965,75
9.597778,14.9383545,4.2266846,0.29296875,-0.95996094,0.20996094,-0.13439941,-0.31054688,-0.15563965,76
10.345459,15.686035,5.508423,0.2878418,-0.9609375,0.20947266,-0.13769531,-0.30688477,-0.15820312,77
10.284424,16.921997,6.8511963,0.2783203,-0.96069336,0.2109375,-0.13769531,-0.30688477,-0.15820312,78
10.131836,18.478394,8.712769,0.26953125,-0.95703125,0.21313477,-0.13769531,-0.30688477,-0.15820312,79
10.147095,20.935059,10.131836,0.25952148,-0.9501953,0.21655273,-0.1373291,-0.30615234,-0.15197754,80
9.82666,24.383545,11.33728,0.24731445,-0.94555664,0.22216797,-0.1373291,-0.30615234,-0.15197754,81
8.972168,25.939941,12.161255,0.23730469,-0.9460449,0.22705078,-0.1373291,-0.30688477,-0.15527344,82
8.4991455,26.19934,12.329102,0.23071289,-0.9499512,0.22753906,-0.1373291,-0.30688477,-0.15527344,83
7.30896,24.337769,12.390137,0.2319336,-0.95825195,0.22436523,-0.1373291,-0.30688477,-0.14648438,84
6.6223145,19.836426,12.207031,0.23388672,-0.96118164,0.21557617,-0.13916016,-0.3083496,-0.14648438,85
6.362915,16.220093,12.420654,0.2331543,-0.9592285,0.20532227,-0.13916016,-0.3083496,-0.14648438,86
6.729126,11.428833,11.886597,0.22460938,-0.9538574,0.20019531,-0.14025879,-0.30541992,-0.15270996,87
6.42395,8.31604,11.0321045,0.20947266,-0.95043945,0.19897461,-0.14025879,-0.30541992,-0.15270996,88
7.003784,7.9345703,9.735107,0.19335938,-0.9472656,0.20141602,-0.13989258,-0.30615234,-0.1538086,89
4.5928955,14.831543,4.5318604,0.12109375,-0.9333496,0.20532227,-0.14318848,-0.30871582,-0.15234375,93
4.6539307,15.914917,3.1280518,0.103515625,-0.9304199,0.19970703,-0.14355469,-0.31018066,-0.15014648,94
5.0354004,18.295288,1.5869141,0.08178711,-0.9238281,0.19091797,-0.14355469,-0.31018066,-0.15014648,95
7.4920654,21.820068,0.18310547,0.05078125,-0.9121094,0.18139648,-0.14355469,-0.31018066,-0.15014648,96
9.963989,28.884888,-1.449585,0.018310547,-0.9020996,0.17675781,-0.14099121,-0.3083496,-0.14685059,97
13.824463,49.28589,-5.0354004,-0.055908203,-0.9033203,0.12597656,-0.14318848,-0.3076172,-0.14904785,99
10.147095,94.7113,-19.882202,-0.13842773,-0.9550781,0.2290039,-0.14318848,-0.30651855,-0.1472168,102
8.728027,114.45618,-25.924683,-0.15673828,-0.9645996,0.2368164,-0.14318848,-0.30651855,-0.1472168,103
6.225586,127.838135,-34.805298,-0.17529297,-0.9802246,0.24267578,-0.14904785,-0.30578613,-0.14465332,104
4.9591064,138.7024,-43.502808,-0.18579102,-0.99316406,0.25,-0.14904785,-0.30578613,-0.14465332,105
1.0986328,145.00427,-52.04773,-0.19873047,-0.99902344,0.2548828,-0.14904785,-0.30578613,-0.14868164,106
0.74768066,149.62769,-63.12561,-0.20922852,-0.9975586,0.2697754,-0.15197754,-0.3046875,-0.14868164,107
-0.9613037,147.43042,-74.61548,-0.2084961,-0.99780273,0.28637695,-0.15197754,-0.3046875,-0.14868164,108
-6.1035156,148.74268,-83.37402,-0.20922852,-0.99975586,0.31982422,-0.15490723,-0.30725098,-0.14282227,109
-11.459351,147.82715,-93.38379,-0.21435547,-1.001709,0.36499023,-0.15490723,-0.30725098,-0.14282227,110
-66.16211,119.30847,-147.49146,-0.2878418,-1.1850586,0.47387695,-0.15637207,-0.3112793,-0.14245605,117
-75.302124,104.96521,-159.75952,-0.29736328,-1.2087402,0.4975586,-0.15637207,-0.3112793,-0.14245605,118
-84.18274,88.21106,-169.29626,-0.31225586,-1.2316895,0.5192871,-0.1508789,-0.30944824,-0.1439209,119
-92.300415,73.62366,-179.19922,-0.34179688,-1.2507324,0.5317383,-0.1508789,-0.30944824,-0.1439209,120
-99.19739,65.90271,-187.77466,-0.3815918,-1.2697754,0.5578613,-0.13989258,-0.3076172,-0.15234375,121
-110.3363,45.73059,-198.13538,-0.41625977,-1.3039551,0.5883789,-0.13989258,-0.3076172,-0.15234375,122
-121.47522,30.715942,-209.06067,-0.43725586,-1.3205566,0.63256836,-0.13989258,-0.3076172,-0.15234375,123
-130.18799,8.2092285,-222.62573,-0.45947266,-1.3244629,0.67041016,-0.13366699,-0.31347656,-0.15344238,124
-137.37488,-9.307861,-235.79407,-0.49414062,-1.3312988,0.70336914,-0.13366699,-0.31347656,-0.15344238,125
-144.22607,-23.6969,-251.63269,-0.5292969,-1.3457031,0.7368164,-0.122680664,-0.31860352,-0.15637207,126
-151.12305,-24.978638,-264.49585,-0.57250977,-1.3796387,0.75561523,-0.122680664,-0.31860352,-0.15637207,127
-159.86633,-10.360718,-274.94812,-0.642334,-1.421875,0.77124023,-0.122680664,-0.31860352,-0.16333008,128
-170.86792,16.967773,-290.6189,-0.6989746,-1.4746094,0.79174805,-0.10949707,-0.32409668,-0.16333008,129
-186.34033,60.943604,-301.07117,-0.7590332,-1.5078125,0.8273926,-0.10949707,-0.32409668,-0.16333008,130
-204.29993,100.738525,-309.75342,-0.8120117,-1.5251465,0.90771484,-0.09667969,-0.33618164,-0.16699219,131
-223.87695,132.15637,-316.98608,-0.81225586,-1.5615234,0.9819336,-0.09667969,-0.33618164,-0.16699219,132
-239.57825,132.44629,-316.51306,-0.7788086,-1.6022949,1.0068359,-0.08862305,-0.3482666,-0.18127441,133
-256.4087,109.97009,-314.1632,-0.73828125,-1.6523438,0.97753906,-0.08862305,-0.3482666,-0.18127441,134
-261.24573,73.33374,-307.2052,-0.6923828,-1.7233887,0.92211914,-0.08862305,-0.3482666,-0.18127441,135
-267.22717,42.114258,-303.1006,-0.6599121,-1.8005371,0.8635254,-0.076171875,-0.35998535,-0.1842041,136
-270.70618,18.966675,-303.34473,-0.65185547,-1.8713379,0.81103516,-0.076171875,-0.35998535,-0.1842041,137
-273.5443,6.942749,-304.9469,-0.6430664,-1.9248047,0.7919922,-0.060791016,-0.37683105,-0.18640137,138
-284.24072,-0.061035156,-310.45532,-0.62597656,-1.9465332,0.77856445,-0.060791016,-0.37683105,-0.18640137,139
-287.12463,-13.381958,-316.1316,-0.59033203,-1.9577637,0.76538086,-0.060791016,-0.37683105,-0.18640137,140
-290.19165,-28.686523,-316.7572,-0.54248047,-1.9536133,0.76000977,-0.047607422,-0.39404297,-0.20251465,141
-291.88538,-46.401978,-328.4607,-0.50390625,-1.925293,0.7553711,-0.047607422,-0.39404297,-0.20251465,142
-286.01074,-70.80078,-339.06555,-0.4711914,-1.8413086,0.7529297,-0.028198242,-0.40942383,-0.20947266,144
-280.74646,-74.539185,-342.59033,-0.4794922,-1.8139648,0.7697754,-0.028198242,-0.40942383,-0.20947266,145
-280.59387,-72.99805,-346.09985,-0.49560547,-1.7841797,0.79003906,-0.0073242188,-0.43359375,-0.21313477,146
-280.63965,-70.55664,-350.92163,-0.51953125,-1.7556152,0.8071289,-0.0073242188,-0.43359375,-0.21313477,147
-284.42383,-65.68909,-349.57886,-0.5214844,-1.7258301,0.80981445,0.009887695,-0.45922852,-0.22302246,148
-281.93665,-55.69458,-357.31506,-0.52490234,-1.6672363,0.7939453,0.009887695,-0.45922852,-0.22302246,149
-282.135,-53.16162,-354.81262,-0.5205078,-1.6269531,0.75756836,0.009887695,-0.45922852,-0.22302246,150
-279.46472,-49.804688,-354.81262,-0.52246094,-1.5788574,0.7312012,0.016479492,-0.4888916,-0.2277832,151
-275.81787,-33.64563,-353.9276,-0.5126953,-1.4719238,0.71362305,0.01940918,-0.52038574,-0.234375,153
-275.60425,-22.583008,-351.76086,-0.5012207,-1.409668,0.7001953,0.01940918,-0.52038574,-0.234375,154
-271.286,-9.82666,-342.8192,-0.49975586,-1.3525391,0.69873047,0.01940918,-0.5496826,-0.23144531,155
-272.62878,5.4016113,-335.02197,-0.5119629,-1.2893066,0.7062988,0.016845703,-0.5496826,-0.23144531,156
-277.05383,23.712158,-334.5642,-0.52856445,-1.2541504,0.71728516,0.016845703,-0.5496826,-0.23144531,157
-274.24622,31.951904,-327.63672,-0.5305176,-1.1948242,0.7192383,0.009155273,-0.5797119,-0.23254395,158
-276.48926,34.820557,-324.2798,-0.50561523,-1.1320801,0.72680664,0.009155273,-0.5797119,-0.23254395,159
