GX,GY,GZ,AX,AY,AZ,MX,MY,MZ,TS
2.6397705,0.24414062,-4.837036,-0.23046875,0.03881836,0.9719238,-0.0637207,-0.033325195,-0.12158203,210
0.4119873,0.5187988,-2.243042,-0.23120117,0.030273438,0.9848633,-0.0637207,-0.033325195,-0.12158203,211
4.4555664,5.7373047,-0.76293945,-0.23901367,0.01977539,0.99194336,-0.06225586,-0.029296875,-0.12451172,212
10.1623535,12.34436,1.7089844,-0.24633789,0.01171875,0.98828125,-0.06225586,-0.029296875,-0.12451172,213
13.671875,14.3585205,3.3874512,-0.25219727,0.013427734,0.9733887,-0.06225586,-0.029296875,-0.12524414,214
13.183594,9.70459,3.90625,-0.24926758,0.017578125,0.95214844,-0.06262207,-0.032226562,-0.12524414,215
14.266968,-0.015258789,2.6397705,-0.24731445,0.021484375,0.9379883,-0.06262207,-0.032226562,-0.12524414,216
17.25769,-3.9520264,-0.61035156,-0.24853516,0.02734375,0.9296875,-0.0637207,-0.032592773,-0.12194824,217
23.208618,-5.9051514,-5.1879883,-0.25146484,0.031982422,0.9211426,-0.0637207,-0.032592773,-0.12194824,218
27.282715,-4.1503906,-4.043579,-0.26049805,0.029541016,0.9169922,-0.0637207,-0.029663086,-0.12487793,219
24.505615,-0.1373291,-0.39672852,-0.26904297,0.021484375,0.9189453,-0.0637207,-0.029663086,-0.12487793,220
16.464233,3.753662,3.3416748,-0.2697754,0.016601562,0.92041016,-0.0637207,-0.029663086,-0.12487793,221
9.94873,4.547119,1.9836426,-0.2619629,0.0234375,0.91748047,-0.064086914,-0.029296875,-0.12597656,222
12.512207,2.7008057,-3.692627,-0.2512207,0.030517578,0.9128418,-0.064086914,-0.029296875,-0.12597656,223
18.02063,4.1656494,-8.590698,-0.2487793,0.029541016,0.9116211,-0.064086914,-0.029296875,-0.12597656,224
22.232056,7.507324,-10.070801,-0.25463867,0.022216797,0.91186523,-0.060791016,-0.029296875,-0.122680664,225
23.94104,10.101318,-7.6904297,-0.25952148,0.014404297,0.90405273,-0.060791016,-0.029296875,-0.122680664,226
23.05603,6.729126,-3.5705566,-0.265625,0.008300781,0.8925781,-0.060791016,-0.028930664,-0.12670898,227
20.690918,-2.4414062,0.50354004,-0.2692871,0.005126953,0.8847656,-0.060791016,-0.028930664,-0.12670898,228
18.844604,-11.077881,3.5247803,-0.26660156,0.00390625,0.8886719,-0.060791016,-0.028930664,-0.12670898,229
11.932373,-15.197754,7.4768066,-0.25854492,0.000976563,0.90478516,-0.06298828,-0.02709961,-0.12487793,230
14.862061,-14.633179,12.466431,-0.25341797,-0.011474609,0.9189453,-0.06298828,-0.02709961,-0.12487793,231
15.106201,-11.169434,16.662598,-0.25878906,-0.026855469,0.92089844,-0.060424805,-0.022338867,-0.1237793,232
12.710571,-8.285522,20.339966,-0.26782227,-0.036621094,0.91552734,-0.060424805,-0.022338867,-0.1237793,233
9.277344,-11.276245,24.368286,-0.2692871,-0.033447266,0.90722656,-0.060424805,-0.022338867,-0.1237793,234
8.163452,-20.614624,27.20642,-0.2644043,-0.026855469,0.9020996,-0.060424805,-0.020874023,-0.119018555,235
8.453369,-30.838013,25.665283,-0.25219727,-0.014404297,0.9082031,-0.060424805,-0.020874023,-0.119018555,236
13.122559,-36.43799,19.77539,-0.23632812,-0.007324219,0.92456055,-0.053833008,-0.017944336,-0.12084961,237
20.126343,-30.303955,19.195557,-0.22753906,-0.0078125,0.9484863,-0.053833008,-0.017944336,-0.12084961,238
26.062012,-14.907837,9.521484,-0.22729492,-0.005126953,0.9699707,-0.053833008,-0.017944336,-0.12084961,239
28.366089,0.9613037,5.493164,-0.22753906,0.006103516,0.97558594,-0.048339844,-0.012817383,-0.11975098,240
27.938843,7.9956055,4.3029785,-0.22729492,0.014648438,0.967041,-0.048339844,-0.012817383,-0.11975098,241
23.605347,8.346558,2.1362305,-0.22998047,0.022949219,0.95996094,-0.049438477,-0.008056641,-0.1237793,242
19.16504,5.1574707,0.030517578,-0.23706055,0.029296875,0.9609375,-0.049438477,-0.008056641,-0.1237793,243
20.904541,4.6844482,-2.2583008,-0.24487305,0.025146484,0.95947266,-0.049438477,-0.008056641,-0.1237793,244
25.512695,1.6021729,-1.9683838,-0.24780273,0.017578125,0.95458984,-0.048339844,-0.009521484,-0.12634277,245
29.678345,4.7454834,0.16784668,-0.25512695,0.011962891,0.96484375,-0.048339844,-0.009521484,-0.12634277,246
30.914307,10.421753,4.4555664,-0.2607422,0.002929688,0.9765625,-0.049804688,-0.005493164,-0.12634277,247
34.622192,8.69751,11.306763,-0.2644043,-0.010742188,0.9663086,-0.049804688,-0.005493164,-0.12634277,248
43.70117,3.7231445,16.784668,-0.2644043,-0.018310547,0.94140625,-0.049804688,-0.005493164,-0.12634277,249
50.811768,-12.237549,15.213013,-0.2607422,-0.017822266,0.921875,-0.053100586,-0.00402832,-0.1270752,250
52.749634,-20.27893,12.756348,-0.25585938,-0.017822266,0.9152832,-0.053100586,-0.00402832,-0.1270752,251
54.80957,-26.870728,7.965088,-0.2512207,-0.018554688,0.91430664,-0.048706055,-0.006591797,-0.12963867,252
59.4635,-24.612427,4.7302246,-0.2512207,-0.022216797,0.9199219,-0.048706055,-0.006591797,-0.12963867,253
65.36865,-18.218994,4.4555664,-0.26586914,-0.03930664,0.91381836,-0.048706055,-0.006591797,-0.12963867,254
74.75281,-14.572144,2.0141602,-0.28808594,-0.06933594,0.8881836,-0.049072266,0.001464844,-0.122680664,255
81.451416,-17.730713,1.2664795,-0.30810547,-0.095458984,0.86035156,-0.049072266,0.001464844,-0.122680664,0
68.51196,-29.830933,4.4555664,-0.31396484,-0.11450195,0.83618164,-0.049072266,0.001464844,-0.12561035,1
51.986694,-46.310425,21.621704,-0.31079102,-0.122558594,0.84399414,-0.051635742,0.006958008,-0.12561035,2
45.303345,-52.15454,35.736084,-0.2956543,-0.119140625,0.89208984,-0.051635742,0.006958008,-0.12561035,3
52.39868,-50.598145,54.4281,-0.27124023,-0.09692383,0.9499512,-0.039916992,0.01977539,-0.12158203,4
66.74194,-42.86194,61.065674,-0.24804688,-0.071777344,0.9758301,-0.039916992,0.01977539,-0.12158203,5
75.0885,-34.820557,58.670044,-0.23608398,-0.06689453,0.96606445,-0.039916992,0.01977539,-0.11791992,6
70.15991,-31.204224,54.489136,-0.22973633,-0.07299805,0.95043945,-0.034057617,0.025634766,-0.11791992,7
55.633545,-25.268555,47.531128,-0.22924805,-0.08081055,0.9436035,-0.034057617,0.025634766,-0.11791992,8
53.81775,-26.794434,36.209106,-0.2434082,-0.095703125,0.94677734,-0.033691406,0.032592773,-0.119384766,9
61.035156,-28.015137,31.433105,-0.26098633,-0.10180664,0.95410156,-0.033691406,0.032592773,-0.119384766,10
67.0166,-28.533936,31.829834,-0.2758789,-0.09863281,0.96191406,-0.033691406,0.032592773,-0.119384766,11
67.39807,-29.281616,30.441284,-0.2854004,-0.09301758,0.9707031,-0.029296875,0.0435791,-0.118652344,12
70.60242,-31.051636,27.359009,-0.29296875,-0.09375,0.97314453,-0.029296875,0.0435791,-0.118652344,13
72.891235,-29.037476,17.501831,-0.3017578,-0.103759766,0.9797363,-0.023803711,0.047607422,-0.115722656,14
65.30762,-25.787354,6.713867,-0.31030273,-0.13867188,0.9885254,-0.023803711,0.047607422,-0.115722656,15
61.09619,-19.882202,-9.58252,-0.32250977,-0.17138672,1.0056152,-0.023803711,0.047607422,-0.115722656,16
66.17737,-13.73291,-32.01294,-0.3310547,-0.1977539,1.019043,-0.01940918,0.05493164,-0.111694336,17
75.51575,-6.378174,-54.260254,-0.33740234,-0.22045898,1.0097656,-0.01940918,0.05493164,-0.111694336,18
88.72986,-4.0893555,-73.47107,-0.35058594,-0.24926758,0.96777344,-0.017578125,0.05126953,-0.10583496,19
102.5238,-4.7302246,-77.10266,-0.36157227,-0.27978516,0.90527344,-0.017578125,0.05126953,-0.10583496,20
108.58154,-8.926392,-67.82532,-0.36450195,-0.29882812,0.85791016,-0.017578125,0.05126953,-0.10583496,21
102.18811,-11.672974,-49.240112,-0.35791016,-0.3095703,0.84228516,-0.01940918,0.057128906,-0.10510254,22
96.343994,-15.258789,-22.750854,-0.34448242,-0.31323242,0.8413086,-0.01940918,0.057128906,-0.10510254,23
99.65515,-20.446777,2.0751953,-0.33007812,-0.3005371,0.84228516,-0.010620117,0.064819336,-0.10546875,24
100.43335,-25.939941,29.205322,-0.32080078,-0.27856445,0.85302734,-0.010620117,0.064819336,-0.10546875,25
87.677,-32.77588,44.204712,-0.3149414,-0.25341797,0.88061523,-0.010620117,0.064819336,-0.10546875,26
73.88306,-36.987305,48.27881,-0.31762695,-0.23632812,0.9057617,-0.000366211,0.075805664,-0.10510254,27
67.0166,-38.45215,36.849976,-0.32250977,-0.21582031,0.91748047,-0.000366211,0.075805664,-0.10510254,28
63.171387,-35.598755,18.28003,-0.3227539,-0.19189453,0.9260254,0.002563477,0.08129883,-0.1003418,29
58.929443,-29.159546,-0.7171631,-0.3161621,-0.1772461,0.9326172,0.002563477,0.08129883,-0.1003418,30
62.74414,-19.927979,-16.723633,-0.30395508,-0.16113281,0.94140625,0.002563477,0.08129883,-0.1003418,31
70.98389,-11.077881,-33.859253,-0.29101562,-0.14624023,0.95410156,0.009521484,0.08532715,-0.0970459,32
74.81384,-0.9765625,-51.132202,-0.2878418,-0.1484375,0.95874023,0.009521484,0.08532715,-0.0970459,33
79.28467,7.293701,-63.2782,-0.29077148,-0.1652832,0.95043945,0.012084961,0.08532715,-0.10180664,34
84.39636,12.191772,-66.61987,-0.29492188,-0.18188477,0.92700195,0.012084961,0.08532715,-0.10180664,35
82.214355,14.007568,-65.29236,-0.30444336,-0.19726562,0.90722656,0.012084961,0.08532715,-0.10180664,36
74.35608,12.252808,-64.11743,-0.32055664,-0.21411133,0.88671875,0.010253906,0.08459473,-0.09448242,37
69.83948,7.965088,-59.188843,-0.33203125,-0.2253418,0.87158203,0.010253906,0.08459473,-0.09448242,38
66.43677,0.19836426,-49.697876,-0.33496094,-0.22021484,0.861084,0.009887695,0.083862305,-0.09851074,39
62.11853,-9.399414,-36.8042,-0.3334961,-0.20800781,0.8581543,0.009887695,0.083862305,-0.09851074,40
51.26953,-24.475098,-22.018433,-0.27270508,-0.22192383,0.9135742,0.013916016,0.08862305,-0.099243164,44
47.561646,-25.787354,-18.52417,-0.2631836,-0.2512207,0.89990234,0.013916016,0.08862305,-0.099243164,45
40.161133,-31.845093,-9.765625,-0.2548828,-0.26904297,0.88842773,0.013916016,0.08862305,-0.099243164,46
35.7666,-40.81726,4.623413,-0.24926758,-0.27319336,0.89038086,0.014648438,0.087524414,-0.09301758,47
36.43799,-47.62268,30.441284,-0.24169922,-0.26049805,0.90112305,0.014648438,0.087524414,-0.09301758,48
38.742065,-49.453735,49.362183,-0.22875977,-0.2319336,0.9111328,0.014648438,0.087524414,-0.09338379,49
40.039062,-43.5791,62.39319,-0.20751953,-0.19384766,0.921875,0.017944336,0.09338379,-0.09338379,50
33.00476,-28.244019,65.03296,-0.19067383,-0.16308594,0.9367676,0.017944336,0.09338379,-0.09338379,51
29.60205,-10.726929,53.466797,-0.19433594,-0.14868164,0.92822266,0.023803711,0.099609375,-0.088256836,52
36.468506,3.8757324,32.836914,-0.22167969,-0.13989258,0.90356445,0.023803711,0.099609375,-0.088256836,53
37.017822,11.611938,14.572144,-0.24414062,-0.122802734,0.8774414,0.023803711,0.099609375,-0.088256836,54
30.456543,12.191772,1.5716553,-0.26220703,-0.095947266,0.86328125,0.023071289,0.09777832,-0.09118652,55
27.923584,11.184692,-10.025024,-0.27416992,-0.122802734,0.87768555,0.023071289,0.09777832,-0.09118652,56
35.79712,5.355835,-9.979248,-0.28149414,-0.034179688,0.9116211,0.01940918,0.09814453,-0.083862305,57
43.97583,6.362915,-0.8544922,-0.27319336,-0.003662109,0.9453125,0.01940918,0.09814453,-0.083862305,58
57.495117,6.5307617,14.984131,-0.25,0.04248047,0.9753418,0.01940918,0.09814453,-0.083862305,59
58.044434,0.9765625,35.491943,-0.21923828,0.08618164,1.0014648,0.020507812,0.10803223,-0.09301758,60
44.067383,-5.645752,65.56702,-0.18115234,0.12109375,1.0385742,0.020507812,0.10803223,-0.09301758,61
15.823364,-11.154175,93.12439,-0.1484375,0.15039062,1.0942383,0.024536133,0.111328125,-0.08605957,62
-14.129639,-12.313843,119.61365,-0.12670898,0.16992188,1.1481934,0.024536133,0.111328125,-0.08605957,63
-40.115356,-3.829956,140.24353,-0.12133789,0.18383789,1.2207031,0.024536133,0.111328125,-0.08605957,64
-41.94641,20.78247,142.74597,-0.12475586,0.18164062,1.2805176,0.020141602,0.11352539,-0.08532715,65
-33.26416,47.561646,136.76453,-0.11987305,0.17651367,1.3068848,0.020141602,0.11352539,-0.08532715,66
-26.031494,68.481445,120.407104,-0.111083984,0.1887207,1.2890625,-0.003295898,0.10217285,-0.09338379,67
-27.09961,84.365845,95.4895,-0.11767578,0.19848633,1.25,-0.003295898,0.10217285,-0.09338379,68
-37.53662,92.39197,80.03235,-0.15576172,0.19116211,1.2106934,-0.003295898,0.10217285,-0.09338379,69
-50.15564,92.13257,79.940796,-0.2055664,0.16723633,1.197998,-0.026733398,0.09082031,-0.10107422,70
-65.03296,82.611084,91.61377,-0.26831055,0.1496582,1.2131348,-0.026733398,0.09082031,-0.10107422,71
-80.97839,67.62695,107.26929,-0.31103516,0.15454102,1.2312012,-0.036254883,0.08532715,-0.10473633,72
-150.26855,36.42273,117.752075,-0.32543945,0.1730957,1.2641602,-0.036254883,0.08532715,-0.10473633,74
-175.06409,34.13391,96.05408,-0.31274414,0.18945312,1.2854004,-0.045776367,0.07800293,-0.1105957,75
-182.44934,39.07776,57.403564,-0.2998047,0.20874023,1.3208008,-0.045776367,0.07800293,-0.1105957,76
-182.9071,50.41504,13.748169,-0.27978516,0.21972656,1.3747559,-0.061157227,0.06262207,-0.115722656,77
-178.45154,57.266235,-15.609741,-0.26220703,0.22875977,1.4150391,-0.061157227,0.06262207,-0.115722656,78
-185.91309,58.95996,-32.318115,-0.24243164,0.21948242,1.4504395,-0.061157227,0.06262207,-0.115722656,79
-198.07434,51.498413,-39.45923,-0.22094727,0.19189453,1.4733887,-0.07324219,0.03479004,-0.12597656,80
-210.32715,42.404175,-35.38513,-0.2043457,0.14404297,1.4960938,-0.07324219,0.03479004,-0.12597656,81
-235.83984,43.96057,-24.337769,-0.19433594,0.10498047,1.5234375,-0.07434082,0.014282227,-0.12597656,82
-260.52856,57.617188,-30.685425,-0.19213867,0.08154297,1.5666504,-0.07434082,0.014282227,-0.12597656,83
-279.99878,75.62256,-55.892944,-0.20581055,0.08569336,1.6171875,-0.07434082,0.014282227,-0.12597656,84
-293.12134,100.28076,-95.184326,-0.23828125,0.10644531,1.6801758,-0.080200195,-0.013549805,-0.12487793,85
-297.33276,123.73352,-129.66919,-0.27441406,0.109375,1.7282715,-0.080200195,-0.013549805,-0.12487793,86
-291.77856,132.58362,-158.44727,-0.29956055,0.0859375,1.7438965,-0.09448242,-0.05419922,-0.12231445,87
-286.07178,131.68335,-176.04065,-0.29711914,0.046875,1.7475586,-0.09448242,-0.05419922,-0.12231445,88
-289.2456,124.52698,-174.94202,-0.26538086,0.015625,1.7473145,-0.09448242,-0.05419922,-0.12231445,89
-300.38452,119.9646,-163.31482,-0.22485352,-0.010253906,1.7573242,-0.11315918,-0.08166504,-0.1204834,90
-310.33325,120.162964,-141.08276,-0.19042969,-0.03540039,1.7797852,-0.11315918,-0.08166504,-0.1204834,91
-328.36914,130.58472,-114.471436,-0.1459961,-0.036132812,1.8251953,-0.119018555,-0.1105957,-0.111328125,92
-353.65295,144.34814,-88.31787,-0.107177734,-0.009277344,1.8710938,-0.119018555,-0.1105957,-0.111328125,93
-370.19348,158.3252,-68.19153,-0.08618164,0.018554688,1.8901367,-0.119018555,-0.1105957,-0.111328125,94
-377.39563,169.83032,-62.286377,-0.084472656,0.020019531,1.8723145,-0.13110352,-0.13952637,-0.10180664,95
-386.5509,175.65918,-61.75232,-0.095947266,-0.003173828,1.84375,-0.13110352,-0.13952637,-0.10180664,96
-393.75305,179.5044,-55.923462,-0.11035156,-0.034179688,1.7954102,-0.13110352,-0.13952637,-0.10180664,97
-396.39282,175.23193,-36.972046,-0.13549805,-0.07299805,1.736084,-0.14685059,-0.17102051,-0.08605957,98
-395.27893,174.9878,-9.521484,-0.15991211,-0.103027344,1.6835938,-0.14685059,-0.17102051,-0.08605957,99
-392.92908,173.20251,3.3569336,-0.12573242,-0.10668945,1.6220703,-0.1640625,-0.1977539,-0.06958008,100
-378.12805,167.08374,-0.6713867,-0.20605469,-0.09838867,1.5666504,-0.1640625,-0.1977539,-0.06958008,101
-354.79736,166.90063,-13.137817,-0.20117188,-0.06958008,1.5395508,-0.1640625,-0.1977539,-0.06958008,102
-335.14404,169.32678,-27.664185,-0.1743164,-0.008544922,1.5175781,-0.17614746,-0.21936035,-0.05090332,103
-326.11084,173.23303,-33.87451,-0.15039062,0.080322266,1.4909668,-0.17614746,-0.21936035,-0.05090332,104
-320.44983,173.84338,-22.247314,-0.13671875,0.12841797,1.4577637,-0.18603516,-0.23547363,-0.028564453,105
-330.44434,170.44067,-10.223389,-0.12060547,0.12597656,1.4072266,-0.18603516,-0.23547363,-0.028564453,106
-340.59143,161.16333,10.635376,-0.103027344,0.08129883,1.348877,-0.18603516,-0.23547363,-0.028564453,107
-353.54614,154.63257,19.805908,-0.104003906,0.038085938,1.2575684,-0.2006836,-0.25378418,-0.020874023,108
-360.65674,150.11597,35.079956,-0.12402344,-0.000488281,1.1325684,-0.2006836,-0.25378418,-0.020874023,109
-354.50745,147.38464,44.006348,-0.14575195,-0.02368164,1.0148926,-0.20507812,-0.27209473,0.008422852,110
-334.36584,142.25769,48.40088,-0.15625,-0.026855469,0.8947754,-0.20507812,-0.27209473,0.008422852,111
-302.948,126.35803,46.051025,-0.16625977,-0.021728516,0.80249023,-0.20507812,-0.27209473,0.008422852,112
-266.90674,107.97119,46.24939,-0.17260742,-0.011962891,0.71533203,-0.20800781,-0.2874756,0.021972656,113
-240.7074,84.365845,54.992676,-0.16674805,0.000732422,0.6516113,-0.20800781,-0.2874756,0.021972656,114
-222.93091,60.791016,67.5354,-0.15332031,0.010986328,0.58862305,-0.20141602,-0.29992676,0.034423828,115
-205.53589,46.463013,86.54785,-0.13500977,0.025878906,0.5324707,-0.20141602,-0.29992676,0.034423828,116
-192.32178,33.584595,95.581055,-0.11450195,0.049560547,0.4921875,-0.20141602,-0.29992676,0.034423828,117
-186.06567,29.663086,91.81213,-0.09350586,0.08544922,0.46264648,-0.19628906,-0.30395508,0.048706055,118
-185.27222,31.646729,78.73535,-0.076416016,0.12963867,0.45532227,-0.19628906,-0.30395508,0.048706055,119
-178.11584,47.1344,61.47766,-0.068359375,0.18139648,0.45092773,-0.18493652,-0.30651855,0.06335449,120
-160.61401,61.462402,38.83362,-0.068603516,0.21923828,0.4321289,-0.18493652,-0.30651855,0.06335449,121
-144.53125,75.33264,14.678955,-0.07836914,0.23901367,0.3972168,-0.18493652,-0.30651855,0.06335449,122
-127.212524,84.59473,-2.7618408,-0.092285156,0.23950195,0.35864258,-0.18200684,-0.3109131,0.079833984,123
-114.74609,86.60889,-11.917114,-0.10449219,0.2319336,0.30273438,-0.18200684,-0.3109131,0.079833984,124
-105.789185,80.47485,-26.733398,-0.11376953,0.2211914,0.23608398,-0.18969727,-0.3182373,0.09008789,125
-99.41101,72.509766,-33.26416,-0.11791992,0.20629883,0.1796875,-0.18969727,-0.3182373,0.09008789,126
-92.437744,63.12561,-36.987305,-0.119384766,0.18481445,0.18603516,-0.18969727,-0.3182373,0.09008789,127
-86.31897,51.956177,-36.77368,-0.118896484,0.15332031,0.079589844,-0.1907959,-0.31896973,0.09741211,128
-79.208374,42.007446,-34.25598,-0.1159668,0.12475586,0.038330078,-0.1907959,-0.31896973,0.09741211,129
-73.19641,31.097412,-19.363403,-0.1105957,0.099121094,-0.003662109,-0.18969727,-0.3149414,0.10144043,130
-65.17029,17.791748,-6.790161,-0.10644531,0.0703125,-0.030029297,-0.18969727,-0.3149414,0.10144043,131
-54.870605,7.827759,9.994507,-0.1027832,0.045898438,-0.05517578,-0.18969727,-0.3149414,0.10144043,132
-41.107178,3.6468506,18.997192,-0.1027832,0.026367188,-0.072021484,-0.1875,-0.30908203,0.11425781,133
-27.130127,-4.3029785,23.81897,-0.10546875,0.008789063,-0.08544922,-0.1875,-0.30908203,0.11425781,134
-10.040283,-6.1187744,24.459839,-0.10839844,-0.002197266,-0.0925293,-0.27868652,-0.3112793,0.11645508,135
11.856079,-8.544922,19.470215,-0.10864258,-0.007324219,-0.09716797,-0.18493652,-0.3112793,0.11645508,136
35.17151,-13.763428,9.429932,-0.111328125,-0.012451172,-0.099365234,-0.18493652,-0.3112793,0.11645508,137
55.4657,-18.966675,5.2490234,-0.12036133,-0.01586914,-0.092041016,-0.1809082,-0.30322266,0.11462402,138
75.33264,-24.932861,2.380371,-0.13305664,-0.01586914,-0.07885742,-0.1809082,-0.30322266,0.11462402,139
96.572876,-32.913208,-3.8604736,-0.14160156,-0.012695313,-0.06542969,-0.1809082,-0.30285645,0.10546875,140
112.50305,-45.928955,-11.21521,-0.1430664,-0.014892578,-0.053466797,-0.1739502,-0.30285645,0.10546875,141
121.673584,-58.166504,-19.622803,-0.13720703,-0.024902344,-0.033447266,-0.1739502,-0.30285645,0.10546875,142
138.19885,-66.970825,-29.266357,-0.12158203,-0.041992188,-0.05908203,-0.17175293,-0.29919434,0.09814453,143
151.74866,-75.82092,-37.002563,-0.099853516,-0.061279297,0.034423828,-0.17175293,-0.29919434,0.09814453,144
165.60364,-77.63672,-47.332764,-0.07495117,-0.08154297,0.07128906,-0.17175293,-0.29919434,0.09814453,145
183.88367,-76.47705,-55.2063,-0.057861328,-0.111083984,0.12060547,-0.17614746,-0.29553223,0.0871582,146
192.32178,-74.8291,-59.35669,-0.03955078,-0.14208984,0.18579102,-0.17614746,-0.29553223,0.0871582,147
208.57239,-74.09668,-63.415527,-0.021240234,-0.16918945,0.27416992,-0.17797852,-0.29077148,0.068115234,148
228.302,-75.72937,-69.39697,-0.000976563,-0.19311523,0.35791016,-0.17797852,-0.29077148,0.068115234,149
251.70898,-77.45361,-70.755005,0.014648438,-0.21362305,0.41333008,-0.17797852,-0.29077148,0.068115234,150
271.0266,-79.23889,-61.401367,0.013671875,-0.23608398,0.47583008,-0.18200684,-0.2808838,0.049438477,151
285.67505,-83.70972,-45.47119,-0.000244141,-0.25805664,0.54174805,-0.18200684,-0.2808838,0.049438477,152
290.23743,-91.44592,-22.079468,-0.021484375,-0.2763672,0.6357422,-0.1842041,-0.2709961,0.028564453,153
294.23523,-100.02136,-6.362915,-0.040039062,-0.28808594,0.7277832,-0.1842041,-0.2709961,0.028564453,154
300.15564,-105.33142,5.493164,-0.0546875,-0.28808594,0.82299805,-0.1842041,-0.2709961,0.028564453,155
307.95288,-105.17883,10.08606,-0.064941406,-0.28442383,0.8964844,-0.17944336,-0.2574463,0.014282227,156
317.55066,-96.09985,9.567261,-0.076416016,-0.29052734,0.97021484,-0.17944336,-0.2574463,0.014282227,157
328.24707,-79.574585,12.268066,-0.079833984,-0.31884766,1.0678711,-0.17358398,-0.23950195,-0.003662109,158
337.03613,-62.86621,15.991211,-0.08496094,-0.3642578,1.1748047,-0.17358398,-0.23950195,-0.003662109,159
355.72815,-47.74475,14.144897,-0.10424805,-0.4020996,1.2592773,-0.17358398,-0.23950195,-0.003662109,160
395.46204,-35.690308,10.131836,-0.15039062,-0.41845703,1.3007812,-0.18237305,-0.23291016,-0.020874023,161
426.30005,-35.324097,4.5928955,-0.2043457,-0.4194336,1.317627,-0.18237305,-0.23291016,-0.020874023,162
435.47058,-44.174194,-0.8087158,-0.2788086,-0.42358398,1.3310547,-0.19482422,-0.23144531,-0.044677734,163
420.66956,-65.39917,-6.9732666,-0.35375977,-0.4152832,1.3835449,-0.19482422,-0.23144531,-0.044677734,164
402.22168,-93.87207,0.7171631,-0.41381836,-0.4020996,1.4709473,-0.19482422,-0.23144531,-0.044677734,165
393.69202,-127.822876,8.102417,-0.46313477,-0.40039062,1.5771484,-0.19482422,-0.21533203,-0.064453125,166
407.53174,-167.84668,-15.50293,-0.49414062,-0.39892578,1.6936035,-0.19482422,-0.21533203,-0.064453125,167
420.79163,-162.62817,-39.382935,-0.5270996,-0.45458984,1.8005371,-0.18786621,-0.19226074,-0.08532715,168
380.08118,-150.5127,-58.761597,-0.529541,-0.53808594,1.9018555,-0.18786621,-0.19226074,-0.08532715,169
384.14,-139.23645,-98.44971,-0.53027344,-0.5847168,1.9807129,-0.18786621,-0.19226074,-0.08532715,170
445.4956,-153.12195,-152.13013,-0.54052734,-0.6101074,2.0639648,-0.16625977,-0.15673828,-0.10144043,171
487.99133,-163.69629,-208.29773,-0.5847168,-0.6501465,2.1862793,-0.16625977,-0.15673828,-0.10144043,172
488.72375,-183.25806,-215.22522,-0.5979004,-0.779541,2.303955,-0.17578125,-0.13769531,-0.115722656,173
473.4497,-212.57019,-200.05798,-0.5644531,-0.9291992,2.4267578,-0.17578125,-0.13769531,-0.115722656,174
480.484,-243.36243,-192.59644,-0.51904297,-1.0334473,2.5791016,-0.17578125,-0.13769531,-0.115722656,175
499.9237,-269.16504,-194.42749,-0.4580078,-1.067627,2.7053223,-0.1472168,-0.07946777,-0.1237793,176
499.9237,-285.5835,-184.70764,-0.3996582,-1.0668945,2.8081055,-0.1472168,-0.07946777,-0.1237793,177
499.9237,-17.578125,-500,-0.5419922,0.53686523,3.342041,-0.11645508,-0.02746582,-0.13183594,179
499.9237,-444.80896,-500,-0.1652832,-0.96533203,2.8754883,-0.11645508,-0.02746582,-0.13183594,180
298.44666,-220.24536,-295.79163,-0.22558594,-1.0563965,2.770996,-0.076538086,0.052001953,-0.12084961,181
295.578,-238.4491,-256.27136,-0.030517578,-1.1108398,2.753418,-0.076538086,0.052001953,-0.12084961,182
487.18262,-316.08582,-224.92981,0.17797852,-1.0930176,2.805664,-0.076538086,0.06335449,-0.115722656,183
428.36,-262.86316,-324.17297,0.3359375,-1.0671387,2.8601074,-0.052001953,0.06335449,-0.115722656,184
363.05237,-275.5127,-273.83423,0.49731445,-0.95336914,2.8310547,-0.052001953,0.06335449,-0.115722656,185
390.82336,-243.89648,-218.59741,0.61816406,-0.82666016,2.7497559,-0.02746582,0.083496094,-0.10583496,186
395.2484,-195.46509,-197.29614,0.66186523,-0.77563477,2.6708984,-0.02746582,0.083496094,-0.10583496,187
415.75623,-141.03699,-182.1289,0.6765137,-0.67529297,2.6621094,-0.02746582,0.01977539,-0.09411621,188
444.88525,-107.52869,-175.78125,0.68847656,-0.5209961,2.6296387,0.005493164,0.11352539,-0.09411621,189
417.49573,-93.70422,-187.9425,0.6826172,-0.33325195,2.508789,0.005493164,0.11352539,-0.09411621,190
287.9181,3.6468506,-229.61426,0.7116699,-0.061767578,2.4794922,0.03112793,0.15014648,-0.087524414,191
-165.29846,337.73804,-262.5122,0.8208008,0.39379883,2.6970215,0.03112793,0.15014648,-0.087524414,192
-500,499.9237,-427.8717,1.0344238,1.1254883,3.0720215,0.083496094,0.19445801,-0.1003418,194
-500,499.9237,-91.58325,0.54248047,0.9934082,4.7785645,0.083496094,0.19445801,-0.1003418,195
498.03162,10.543823,-64.28528,1.7944336,1.5024414,0.6311035,-0.010986328,0.09741211,-0.13586426,196
499.9237,137.16125,72.3114,1.2749023,-0.5800781,0.1538086,-0.010986328,0.09741211,-0.13586426,197
499.9237,0.21362305,-32.165527,0.05126953,-1.0529785,-0.38623047,-0.010986328,0.09741211,-0.13586426,198
462.20398,-218.44482,-248.88611,-0.46606445,-0.75146484,-1.0354004,-0.041381836,0.13769531,-0.13989258,199
-473.55652,25.787354,8.483887,0.3256836,0.6904297,-0.2692871,-0.041381836,0.13769531,-0.13989258,200
208.12988,-55.038452,-56.44226,-0.033691406,-0.12158203,0.6520996,-0.039916992,0.1340332,-0.13659668,201
499.9237,-370.71228,-84.21326,0.81689453,0.86035156,0.80249023,-0.039916992,0.1340332,-0.13659668,202
365.12756,-500,180.58777,1.3237305,1.1577148,1.1003418,-0.039916992,0.1340332,-0.13659668,203
365.50903,29.022217,69.91577,0.10253906,0.104003906,0.96435547,-0.012817383,0.16186523,-0.1303711,204
62.74414,93.09387,-276.22986,-0.15942383,0.6171875,0.35302734,-0.012817383,0.16186523,-0.1303711,205
-106.292725,222.54944,-201.93481,0.22998047,1.3569336,0.3647461,-0.0637207,0.119018555,-0.12854004,206
-173.50769,211.85303,-107.39136,0.6154785,1.2575684,0.7351074,-0.0637207,0.119018555,-0.12854004,207
-182.09839,93.87207,-144.16504,0.73876953,0.89208984,0.81591797,-0.0637207,0.119018555,-0.12854004,208
-128.66211,12.10022,-182.89185,0.79248047,0.76464844,0.58081055,-0.03918457,0.13842773,-0.12817383,209
-59.783936,102.386475,-105.651855,0.86816406,0.5109863,0.5974121,-0.03918457,0.13842773,-0.12817383,210
-37.17041,192.62695,-77.71301,0.93408203,0.4020996,0.5817871,-0.045776367,0.1270752,-0.13476562,211
-44.769287,253.67737,-55.17578,0.91748047,0.30615234,0.5480957,-0.045776367,0.1270752,-0.13476562,212
-69.51904,275.93994,-16.830444,0.79003906,0.2133789,0.5708008,-0.045776367,0.1270752,-0.13476562,213
-66.55884,254.37927,59.9823,0.63842773,0.1586914,0.6164551,-0.088256836,0.09667969,-0.14245605,214
-84.869385,224.80774,130.15747,0.47094727,0.10522461,0.5834961,-0.088256836,0.09667969,-0.14245605,215
-99.227905,178.1311,150.46692,0.22338867,0.12670898,0.6008301,-0.11975098,0.07067871,-0.1439209,216
-133.8501,153.77808,203.78113,0.14331055,0.0925293,0.6677246,-0.11975098,0.07067871,-0.1439209,217
-159.6222,121.658325,249.00818,0.1081543,0.07739258,0.7307129,-0.11975098,0.07067871,-0.1439209,218
-169.75403,80.200195,256.10352,0.12231445,0.028564453,0.77490234,-0.14831543,0.0501709,-0.13952637,219
-187.98828,39.5813,248.04688,0.14575195,-0.08300781,0.7873535,-0.14831543,0.0501709,-0.13952637,220
-184.32617,-6.072998,210.31189,0.17089844,-0.17797852,0.80566406,-0.15563965,0.026733398,-0.14501953,221
-126.327515,-29.129028,174.54529,0.14648438,-0.3408203,0.86816406,-0.15563965,0.026733398,-0.14501953,222
-72.92175,-46.401978,156.99768,0.119628906,-0.52075195,0.92578125,-0.15563965,0.026733398,-0.14501953,223
-22.323608,-41.94641,163.62,0.067871094,-0.6628418,1.0029297,-0.15930176,0.015014648,-0.14172363,224
20.889282,-27.877808,186.87439,0.023925781,-0.7253418,1.0495605,-0.15930176,0.015014648,-0.14172363,225
49.041748,-4.6844482,224.71619,-0.037841797,-0.74316406,1.0778809,-0.15930176,0.011352539,-0.14758301,226
84.487915,18.89038,265.19775,-0.096191406,-0.72875977,1.0673828,-0.1574707,0.011352539,-0.14758301,227
111.92322,21.469116,291.10718,-0.14331055,-0.6828613,1.0268555,-0.1574707,0.011352539,-0.14758301,228
119.41528,-21.606445,304.29077,-0.14892578,-0.62353516,0.9680176,-0.16369629,0.020874023,-0.14428711,229
101.01318,-67.855835,300.9491,-0.15185547,-0.57177734,0.953125,-0.16369629,0.020874023,-0.14428711,230
64.071655,-143.76831,269.08875,-0.15161133,-0.4645996,0.89453125,-0.16369629,0.0234375,-0.14208984,231
-19.958496,-135.28442,260.849,-0.22265625,-0.5097656,0.87939453,-0.16369629,0.0234375,-0.14208984,232
-48.431396,-209.80835,255.87463,-0.12426758,-0.4819336,0.77490234,-0.16369629,0.0234375,-0.14208984,233
-134.26208,-223.8617,174.78943,-0.15649414,-0.36669922,0.8330078,-0.15527344,0.026000977,-0.1439209,234
-149.49036,-261.2915,101.39465,-0.08081055,-0.31884766,0.9580078,-0.15527344,0.026000977,-0.1439209,235
-59.21936,-349.1974,146.54541,0.1303711,-0.35473633,1.0437012,-0.15527344,0.026000977,-0.13806152,236
61.11145,-482.0404,214.90479,0.3762207,-0.34375,1.064209,-0.12854004,0.024536133,-0.13806152,237
165.26794,-500,222.19849,0.4128418,-0.2619629,1.0817871,-0.12854004,0.024536133,-0.13806152,238
202.92664,-500,163.5437,0.3400879,-0.15893555,1.1713867,-0.09851074,0.032958984,-0.123413086,239
196.99097,-425.766,105.651855,0.21289062,-0.13183594,1.2766113,-0.09851074,0.032958984,-0.123413086,240
112.6709,-243.60657,56.137085,0.076171875,-0.1340332,1.4033203,-0.09851074,0.032958984,-0.123413086,241
19.378662,-83.40454,39.55078,-0.006591797,-0.26660156,1.4992676,-0.072509766,0.051635742,-0.115356445,242
-90.85083,136.00159,100.76904,-0.07543945,-0.37109375,1.4465332,-0.072509766,0.051635742,-0.115356445,243
-83.9386,160.35461,68.69507,-0.051757812,-0.34716797,1.2827148,-0.06994629,0.05456543,-0.1171875,244
-128.00598,194.0918,88.974,-0.06323242,-0.25610352,1.0695801,-0.06994629,0.05456543,-0.1171875,245
-182.22046,152.72522,79.49829,-0.04345703,-0.19824219,0.921875,-0.06994629,0.05456543,-0.1171875,246
-233.68835,77.194214,61.538696,-0.07055664,-0.17529297,0.857666,-0.09301758,0.037719727,-0.123413086,247
-260.11658,47.851562,33.721924,-0.09887695,-0.16748047,0.9213867,-0.09301758,0.037719727,-0.123413086,248
-285.6598,-3.463745,7.2021484,-0.075683594,-0.16992188,1.003418,-0.10546875,0.01940918,-0.12634277,249
-243.7439,-13.809204,-31.25,-0.06982422,-0.12890625,1.0895996,-0.10546875,0.01940918,-0.12634277,250
-171.1731,-6.4086914,-73.37952,-0.03515625,-0.087646484,1.2177734,-0.10546875,0.01940918,-0.12634277,251
-116.65344,12.741089,-95.59631,0.004882813,-0.107910156,1.3391113,-0.104003906,0.005859375,-0.12963867,252
-98.861694,29.373169,-78.76587,0.11035156,-0.15698242,1.3999023,-0.104003906,0.005859375,-0.12963867,253
-130.69153,76.416016,-34.65271,0.10839844,-0.23999023,1.5393066,-0.107666016,-0.010253906,-0.13293457,254
-69.83948,66.207886,25.222778,0.19726562,-0.2084961,1.6330566,-0.107666016,-0.010253906,-0.13293457,255
-79.62036,67.94739,20.446777,0.20483398,-0.17675781,1.7468262,-0.107666016,-0.010253906,-0.13293457,0
-88.59253,83.602905,4.974365,0.17358398,-0.060791016,1.8566895,-0.13806152,-0.038085938,-0.13513184,1
-87.18872,98.57178,6.30188,0.08496094,0.028564453,1.9006348,-0.13806152,-0.038085938,-0.13513184,2
-80.581665,92.51404,22.216797,-0.046142578,0.064697266,1.9194336,-0.14794922,-0.046142578,-0.14172363,3
-142.92908,96.588135,55.43518,-0.2097168,0.008789063,1.9943848,-0.14794922,-0.046142578,-0.14172363,4
-261.97815,97.10693,133.3313,-0.29296875,-0.0690918,2.1557617,-0.14794922,-0.046142578,-0.14172363,5
-309.17358,83.740234,192.38281,-0.30664062,-0.08081055,2.2575684,-0.15527344,-0.064819336,-0.13623047,6
-444.93103,179.70276,174.9115,-0.36376953,-0.076660156,2.3166504,-0.15527344,-0.064819336,-0.13623047,7
-397.26257,173.99597,89.18762,-0.2536621,0.08081055,2.3330078,-0.13806152,-0.076538086,-0.13586426,8
-301.9867,194.54956,12.9852295,-0.15527344,0.22558594,2.4055176,-0.13806152,-0.076538086,-0.13586426,9
-289.27612,216.85791,-45.85266,-0.059326172,0.2265625,2.4995117,-0.13806152,-0.076538086,-0.13586426,10
-311.5692,249.80164,-62.39319,-0.044189453,0.14892578,2.5170898,-0.18603516,-0.13293457,-0.13256836,11
-301.58997,271.1792,-57.556152,-0.07885742,0.040771484,2.4450684,-0.18603516,-0.13293457,-0.13256836,12
-289.12354,287.62817,-46.936035,-0.1430664,-0.11206055,2.2834473,-0.20507812,-0.16223145,-0.119384766,13
-295.16602,289.45923,-35.202026,-0.19140625,-0.24804688,2.111084,-0.20507812,-0.16223145,-0.119384766,14
-336.73096,271.83533,-22.644043,-0.20458984,-0.34765625,1.9084473,-0.20507812,-0.16223145,-0.119384766,15
-390.97595,228.25623,-1.5869141,-0.18774414,-0.38989258,1.746582,-0.21936035,-0.1743164,-0.10986328,16
-450.04272,181.1676,21.087646,-0.16064453,-0.3569336,1.682373,-0.21936035,-0.1743164,-0.10986328,17
-494.82727,144.30237,41.397095,-0.11621094,-0.26635742,1.7375488,-0.21936035,-0.1743164,-0.08459473,18
-500,125.50354,30.944824,-0.0637207,-0.12084961,1.8417969,-0.22631836,-0.2010498,-0.08459473,19
-500,134.46045,-21.591187,-0.024414062,0.011474609,1.9104004,-0.22631836,-0.2010498,-0.08459473,20
-500,165.72571,-114.974976,-0.009765625,0.08276367,1.9230957,-0.23657227,-0.23217773,-0.060791016,21
-500,215.40833,-190.3534,-0.007324219,0.056396484,1.9023438,-0.23657227,-0.23217773,-0.060791016,22
-500,264.98413,-234.9701,-0.026123047,-0.014892578,1.8662109,-0.23657227,-0.23217773,-0.060791016,23
-500,299.5453,-275.57373,-0.033935547,-0.1171875,1.7922363,-0.2750244,-0.28271484,-0.030761719,24
-500,303.52783,-287.93335,-0.045898438,-0.23022461,1.7368164,-0.2750244,-0.28271484,-0.030761719,25
-460.73914,292.3584,-273.11707,-0.059814453,-0.30737305,1.5302734,-0.32373047,-0.32409668,0,26
-383.63647,259.32312,-249.61853,-0.080322266,-0.35351562,1.3562012,-0.32373047,-0.32409668,0,27
-303.19214,227.35596,-217.57507,-0.10644531,-0.35961914,1.1535645,-0.32373047,-0.32409668,0,28
-259.17053,187.89673,-179.27551,-0.122802734,-0.3659668,0.97875977,-0.3552246,-0.34899902,0.029296875,29
-243.19458,155.04456,-116.256714,-0.1381836,-0.35229492,0.81274414,-0.3552246,-0.34899902,0.029296875,30
-235.19897,133.80432,-39.093018,-0.1508789,-0.3244629,0.6738281,-0.36401367,-0.34277344,0.056030273,31
-238.43384,115.46326,2.5634766,-0.16357422,-0.28759766,0.57714844,-0.36401367,-0.34277344,0.056030273,32
-240.448,112.42676,15.472412,-0.17871094,-0.22631836,0.5246582,-0.36401367,-0.34277344,0.056030273,33
-234.14612,129.34875,1.3275146,-0.18847656,-0.1496582,0.5046387,-0.35375977,-0.3314209,0.08239746,34
-221.46606,156.02112,-16.921997,-0.19580078,-0.09008789,0.47387695,-0.35375977,-0.3314209,0.08239746,35
-195.78552,183.44116,-34.713745,-0.19750977,-0.040527344,0.43432617,-0.33691406,-0.32629395,0.107666016,36
-172.07336,201.95007,-38.55896,-0.19482422,-0.012207031,0.3930664,-0.33691406,-0.32629395,0.107666016,37
-152.05383,199.84436,-27.572632,-0.1887207,-0.014648438,0.34179688,-0.33691406,-0.32629395,0.107666016,38
-135.52856,186.30981,-10.559082,-0.18945312,-0.03515625,0.25390625,-0.3310547,-0.31054688,0.12817383,39
-118.08777,158.9508,7.888794,-0.18383789,-0.046142578,0.15698242,-0.3310547,-0.31054688,0.12817383,40
-102.20337,123.90137,15.838623,-0.16821289,-0.03125,0.05908203,-0.32080078,-0.30065918,0.14794922,41
-97.77832,94.39087,23.651123,-0.15942383,-0.006835938,-0.030761719,-0.32080078,-0.30065918,0.14794922,42
-117.004395,72.28088,25.970459,-0.15771484,0.014892578,-0.07348633,-0.32080078,-0.30065918,0.14794922,43
-137.146,57.174683,20.629883,-0.15283203,0.038085938,-0.072509766,-0.31018066,-0.28930664,0.15527344,44
-135.19287,31.61621,10.818481,-0.1352539,0.06518555,-0.055664062,-0.31018066,-0.28930664,0.15527344,45
-96.328735,6.378174,8.880615,-0.10644531,0.0949707,-0.04345703,-0.2977295,-0.28015137,0.16369629,46
-41.59546,-23.208618,9.628296,-0.08325195,0.12548828,-0.07495117,-0.2977295,-0.28015137,0.16369629,47
2.8076172,-45.88318,24.56665,-0.048583984,0.14916992,-0.118652344,-0.2977295,-0.28015137,0.16369629,48
18.478394,-44.174194,46.417236,-0.03564453,0.14477539,-0.1459961,-0.30908203,-0.29663086,0.16699219,49
9.002686,-38.146973,55.08423,-0.0390625,0.12890625,-0.16430664,-0.30908203,-0.29663086,0.16699219,50
-2.3498535,-23.101807,70.44983,-0.031982422,0.12573242,-0.18603516,-0.3013916,-0.28967285,0.16772461,51
-1.1138916,-20.263672,89.88953,-0.013183594,0.13989258,-0.19824219,-0.3013916,-0.28967285,0.16772461,52
-2.380371,-26.855469,91.36963,-0.001464844,0.16259766,-0.19091797,-0.3013916,-0.28967285,0.16772461,53
-2.1820068,-37.30774,84.854126,0.012939453,0.19482422,-0.16674805,-0.28857422,-0.28234863,0.16662598,54
4.135132,-52.856445,76.27869,0.026611328,0.2434082,-0.13354492,-0.28857422,-0.28234863,0.16662598,55
9.628296,-57.373047,75.19531,0.036376953,0.29589844,-0.11303711,-0.28125,-0.2808838,0.1673584,56
11.901855,-56.09131,71.59424,0.036376953,0.33447266,-0.092041016,-0.28125,-0.2808838,0.1673584,57
26.306152,-59.432983,65.62805,0.038085938,0.35986328,-0.061035156,-0.28125,-0.2808838,0.1673584,58
37.643433,-70.55664,55.58777,0.044677734,0.36865234,-0.030029297,-0.27722168,-0.2849121,0.16186523,59
52.886963,-84.39636,46.76819,0.049072266,0.3713379,-0.060546875,-0.27722168,-0.2849121,0.16186523,60
73.12012,-97.76306,31.37207,0.051513672,0.36865234,0.026367188,-0.27685547,-0.28930664,0.15710449,61
92.36145,-103.95813,19.439697,0.043945312,0.35791016,0.04345703,-0.27685547,-0.28930664,0.15710449,62
107.299805,-108.20007,2.4261475,0.032470703,0.33032227,0.06738281,-0.27685547,-0.28930664,0.15710449,63
118.57605,-112.960815,-14.266968,0.029296875,0.28320312,0.095458984,-0.28198242,-0.29736328,0.14465332,64
126.46484,-118.33191,-26.062012,0.034423828,0.22583008,0.11743164,-0.28198242,-0.29736328,0.14465332,65
127.41089,-124.90845,-30.258179,0.037841797,0.15991211,0.13647461,-0.28198242,-0.29736328,0.14465332,66
125.701904,-126.28174,-12.451172,0.03466797,0.09448242,0.1652832,-0.28564453,-0.30029297,0.13586426,67
125.45776,-125.823975,21.652222,0.017578125,0.068115234,0.19848633,-0.28564453,-0.30029297,0.13586426,68
128.57056,-127.212524,53.771973,-0.013916016,0.07836914,0.22998047,-0.28710938,-0.29992676,0.1204834,69
140.79285,-134.67407,64.91089,-0.05053711,0.099365234,0.2685547,-0.28710938,-0.29992676,0.1204834,70
167.06848,-144.56177,50.628662,-0.0793457,0.11987305,0.31225586,-0.28710938,-0.29992676,0.1204834,71
203.85742,-159.59167,24.978638,-0.099853516,0.123046875,0.35253906,-0.2845459,-0.29992676,0.10437012,72
244.7052,-163.23853,3.3721924,-0.091308594,0.11401367,0.375,-0.2845459,-0.29992676,0.10437012,73
277.38953,-158.03528,-3.036499,-0.06640625,0.07861328,0.38305664,-0.27905273,-0.2980957,0.08459473,74
292.66357,-152.42004,15.426636,-0.022949219,0.018798828,0.36914062,-0.27905273,-0.2980957,0.08459473,75
278.1067,-146.74377,64.77356,0.002197266,-0.049560547,0.36083984,-0.27905273,-0.2980957,0.08459473,76
261.90186,-155.12085,100.05188,0.007324219,-0.06958008,0.43164062,-0.27172852,-0.28710938,0.053100586,77
271.16394,-172.63794,111.22131,-0.012939453,-0.04711914,0.5703125,-0.27172852,-0.28710938,0.053100586,78
296.12732,-191.87927,99.18213,-0.028076172,-0.015625,0.7561035,-0.25671387,-0.27722168,0.028198242,79
323.4558,-190.73486,83.51135,-0.025146484,0.008544922,0.8977051,-0.25671387,-0.27722168,0.028198242,80
342.23938,-173.70605,73.028564,0.000488281,0.071777344,0.9301758,-0.25671387,-0.27722168,0.028198242,81
364.5935,-141.90674,56.732178,0.025390625,0.12988281,0.8894043,-0.2442627,-0.26586914,0.006958008,82
371.45996,-125.564575,60.256958,0.02758789,0.13476562,0.84887695,-0.2442627,-0.26586914,0.006958008,83
363.51013,-127.22778,79.940796,0.017578125,0.08300781,0.81469727,-0.23254395,-0.24719238,-0.01977539,84
352.0813,-151.26038,105.3772,0.015625,0.018554688,0.954834,-0.23254395,-0.24719238,-0.01977539,85
341.156,-179.97742,127.79236,0.014160156,-0.011230469,1.0527344,-0.23254395,-0.24719238,-0.01977539,86
322.84546,-201.03455,150.55847,0.013916016,-0.015136719,1.1589355,-0.21606445,-0.22521973,-0.03479004,87
293.71643,-206.3446,175.32349,0.007568359,-0.010253906,1.2858887,-0.21606445,-0.22521973,-0.03479004,88
286.08704,-202.30103,191.66565,-0.00390625,0.002197266,1.3859863,-0.20288086,-0.21313477,-0.0501709,89
310.2417,-193.42041,200.0885,-0.010742188,0.036132812,1.416748,-0.20288086,-0.21313477,-0.0501709,90
336.792,-184.67712,196.12122,-0.052001953,0.063964844,1.3962402,-0.20288086,-0.21313477,-0.0501709,91
335.5255,-176.97144,188.58337,-0.10424805,0.083740234,1.4206543,-0.17871094,-0.19519043,-0.0670166,92
335.12878,-179.5044,180.52673,-0.14379883,0.10205078,1.4714355,-0.17871094,-0.19519043,-0.0670166,93
338.88245,-198.04382,159.66797,-0.17358398,0.099609375,1.5529785,-0.16333008,-0.17321777,-0.08312988,94
343.18542,-224.07532,149.42932,-0.18408203,0.11401367,1.6315918,-0.16333008,-0.17321777,-0.08312988,95
344.20776,-266.2964,141.28113,-0.24487305,0.1340332,1.6950684,-0.16333008,-0.17321777,-0.08312988,96
374.98474,-273.4375,155.68542,-0.18286133,0.20800781,1.763916,-0.15234375,-0.15856934,-0.0970459,97
254.98962,-197.66235,146.11816,-0.2524414,0.13623047,1.8586426,-0.15234375,-0.15856934,-0.0970459,98
236.40442,-200.72937,100.55542,-0.2614746,0.15429688,1.8505859,-0.11682129,-0.119018555,-0.107666016,99
331.43616,-188.14087,70.632935,-0.25952148,0.1821289,1.8041992,-0.11682129,-0.119018555,-0.107666016,100
345.5658,-169.83032,47.62268,-0.28320312,0.13427734,1.7685547,-0.11682129,-0.119018555,-0.107666016,101
282.1808,-129.92859,32.333374,-0.30810547,0.06567383,1.7004395,-0.12084961,-0.111328125,-0.10656738,102
222.86987,-87.61597,5.996704,-0.32641602,0.014892578,1.645752,-0.12084961,-0.111328125,-0.10656738,103
209.3811,-71.70105,-38.146973,-0.32836914,0.013671875,1.6037598,-0.18237305,-0.0670166,-0.119384766,104
222.36633,-81.222534,-92.10205,-0.3161621,-0.030761719,1.5964355,-0.08862305,-0.0670166,-0.119384766,105
252.01416,-117.40112,-102.56958,-0.28149414,-0.061279297,1.6162109,-0.08862305,-0.0670166,-0.119384766,106
237.96082,-153.56445,-71.44165,-0.23144531,-0.12231445,1.6335449,-0.076538086,-0.041381836,-0.12011719,107
208.4198,-185.60791,-21.377563,-0.19018555,-0.16674805,1.640625,-0.076538086,-0.041381836,-0.12011719,108
168.42651,-192.68799,26.306152,-0.14355469,-0.17041016,1.644043,-0.076538086,-0.041381836,-0.114990234,109
124.72534,-181.47278,64.208984,-0.09887695,-0.13989258,1.6501465,-0.06262207,-0.016845703,-0.114990234,110
76.88904,-108.70361,69.992065,-0.09106445,-0.01171875,1.6762695,-0.03552246,0.010620117,-0.107666016,112
79.46777,-71.517944,38.970947,-0.1303711,0.052978516,1.6652832,-0.03552246,0.010620117,-0.107666016,113
89.29443,-25.71106,-9.521484,-0.18945312,0.11010742,1.6303711,-0.03552246,0.010620117,-0.107666016,114
89.782715,33.2489,-84.28955,-0.26123047,0.12890625,1.5454102,-0.022338867,0.025268555,-0.103271484,115
53.634644,48.477173,-126.434326,-0.29711914,0.14550781,1.4978027,-0.022338867,0.025268555,-0.103271484,116
27.359009,63.24768,-140.94543,-0.30200195,0.15649414,1.4846191,-0.02746582,0.017944336,-0.10473633,117
11.825562,39.855957,-112.68616,-0.27929688,0.19580078,1.5083008,-0.02746582,0.017944336,-0.10473633,118
21.362305,2.1514893,-89.58435,-0.2355957,0.2607422,1.5310059,-0.02746582,0.017944336,-0.10473633,119
40.496826,-40.740967,-76.934814,-0.17358398,0.35058594,1.5576172,-0.03918457,-0.000732422,-0.103271484,120
52.55127,-45.028687,-63.934326,-0.15917969,0.43359375,1.5864258,-0.03918457,-0.000732422,-0.103271484,121
76.23291,-70.84656,-54.32129,-0.0793457,0.5390625,1.5341797,-0.047607422,-0.014648438,-0.099609375,122
127.13623,-57.69348,-19.012451,-0.052001953,0.6064453,1.4992676,-0.047607422,-0.014648438,-0.099609375,123
135.16235,-37.734985,-32.318115,-0.071777344,0.5998535,1.3422852,-0.047607422,-0.014648438,-0.099609375,124
129.54712,-10.467529,-66.085815,-0.14038086,0.5617676,1.2775879,-0.0435791,-0.005493164,-0.099243164,125
128.93677,9.033203,-102.84424,-0.20727539,0.5214844,1.2392578,-0.0435791,-0.005493164,-0.099243164,126
123.39783,15.74707,-178.49731,-0.26879883,0.49389648,1.2351074,-0.04724121,-0.002929688,-0.10107422,127
115.90576,14.724731,-216.35437,-0.34350586,0.41723633,1.1992188,-0.04724121,-0.002929688,-0.10107422,128
131.34766,23.986816,-231.3385,-0.38183594,0.33544922,1.1269531,-0.04724121,-0.002929688,-0.10107422,129
132.76672,8.666992,-238.32703,-0.41967773,0.23925781,1.0375977,-0.05053711,-0.001098633,-0.10437012,130
125.22888,0.50354004,-224.18213,-0.43676758,0.16381836,0.9584961,-0.05053711,-0.001098633,-0.10437012,131
105.10254,-23.80371,-197.89124,-0.42333984,0.10058594,0.90600586,-0.053833008,-0.005493164,-0.10620117,132
85.98328,-40.008545,-174.5758,-0.39282227,0.071777344,0.8996582,-0.053833008,-0.005493164,-0.10620117,133
105.36194,-81.63452,-171.93604,-0.33764648,-0.08178711,0.92578125,-0.053833008,-0.006591797,-0.10437012,136
98.098755,-79.80347,-128.60107,-0.31323242,-0.18603516,0.92749023,-0.049072266,-0.005493164,-0.104003906,137
86.8988,-82.68738,-91.537476,-0.2927246,-0.26782227,0.92993164,-0.049072266,-0.005493164,-0.104003906,138
54.153442,-74.798584,-26.09253,-0.30444336,-0.36450195,0.9267578,-0.049072266,-0.005493164,-0.104003906,139
49.041748,-67.29126,38.772583,-0.31982422,-0.44458008,0.9135742,-0.044311523,0.001098633,-0.099609375,140
91.97998,-73.516846,89.7522,-0.3046875,-0.4716797,0.8864746,-0.035888672,0.010986328,-0.09741211,142
116.39404,-78.308105,78.9032,-0.29589844,-0.42382812,0.88549805,-0.035888672,0.010986328,-0.09741211,143
143.79883,-73.83728,58.425903,-0.2890625,-0.35717773,0.8852539,-0.035888672,0.010986328,-0.09741211,144
162.7655,-65.49072,38.482666,-0.27490234,-0.2919922,0.89624023,-0.024902344,0.025268555,-0.09375,145
174.27063,-55.81665,29.785156,-0.2565918,-0.23754883,0.9135742,-0.024902344,0.025268555,-0.09375,146
180.63354,-48.75183,23.81897,-0.24804688,-0.19091797,0.92822266,-0.017211914,0.041748047,-0.095947266,147
173.38562,-43.289185,24.32251,-0.23413086,-0.15405273,0.92626953,-0.017211914,0.041748047,-0.095947266,148
145.6604,-40.267944,32.180786,-0.2097168,-0.12646484,0.92089844,-0.017211914,0.041748047,-0.095947266,149
112.88452,-42.60254,46.661377,-0.18774414,-0.11669922,0.9091797,-0.014282227,0.053833008,-0.1003418,150
79.193115,-47.836304,64.971924,-0.16967773,-0.12475586,0.8918457,-0.014282227,0.053833008,-0.1003418,151
54.44336,-49.88098,94.40613,-0.15820312,-0.14233398,0.935791,-0.014282227,0.06335449,-0.09411621,152
30.288696,-48.62976,122.36023,-0.15185547,-0.14477539,0.8569336,-0.002563477,0.06335449,-0.09411621,153
14.404297,-45.822144,140.31982,-0.14550781,-0.12426758,0.8466797,-0.002563477,0.06335449,-0.09411621,154
10.665894,-44.8761,146.37756,-0.13232422,-0.088134766,0.8544922,-0.001831055,0.068847656,-0.0904541,155
15.716553,-44.448853,144.04297,-0.10668945,-0.041748047,0.8798828,-0.001831055,0.068847656,-0.0904541,156
24.719238,-45.211792,128.34167,-0.07495117,0.010253906,0.92163086,-0.001831055,0.07727051,-0.08862305,157
35.79712,-41.5802,106.155396,-0.064208984,0.052490234,0.9453125,-0.000366211,0.07727051,-0.08862305,158
43.10608,-32.608032,83.03833,-0.06933594,0.09326172,0.95458984,-0.000366211,0.07727051,-0.08862305,159
44.525146,-15.151978,61.553955,-0.08251953,0.15527344,0.9626465,0.001831055,0.079833984,-0.087524414,160
45.86792,-3.8604736,30.853271,-0.09082031,0.21020508,0.95288086,0.001831055,0.079833984,-0.087524414,161
47.76001,0.90026855,-11.123657,-0.10107422,0.2602539,0.9416504,0.001831055,0.079833984,-0.087524414,162
62.530518,3.7841797,-56.47278,-0.107910156,0.29248047,0.939209,0.001464844,0.084228516,-0.0871582,163
64.39209,7.8582764,-83.75549,-0.10058594,0.29614258,0.9621582,0.001464844,0.084228516,-0.0871582,164
51.330566,14.801025,-83.87756,-0.080566406,0.27514648,1.0112305,-0.000732422,0.080200195,-0.08605957,165
34.0271,24.612427,-61.21826,-0.05444336,0.23999023,1.0610352,-0.000732422,0.080200195,-0.08605957,166
11.352539,33.477783,-25.466919,-0.014892578,0.20947266,1.1027832,-0.000732422,0.080200195,-0.08605957,167
-11.230469,37.78076,13.580322,0.024414062,0.17871094,1.1357422,-0.01171875,0.079833984,-0.088256836,168
-36.331177,38.42163,41.656494,0.05029297,0.1430664,1.1677246,-0.01171875,0.079833984,-0.088256836,169
-52.764893,42.495728,61.798096,0.056396484,0.107910156,1.2145996,-0.020874023,0.06774902,-0.091552734,170
-58.47168,58.563232,80.322266,0.044433594,0.06225586,1.2687988,-0.020874023,0.06774902,-0.091552734,171
-54.55017,72.73865,101.638794,0.033935547,0.003173828,1.3310547,-0.020874023,0.06774902,-0.091552734,172
-54.04663,85.510254,115.21912,0.038330078,-0.04711914,1.3664551,-0.035888672,0.057128906,-0.092285156,173
-64.01062,96.05408,113.55591,0.040771484,-0.08886719,1.3937988,-0.035888672,0.057128906,-0.092285156,174
-72.86072,106.75049,110.97717,0.03173828,-0.12792969,1.4150391,-0.052734375,0.0501709,-0.095581055,175
-64.54468,109.558105,113.32703,0.021240234,-0.19384766,1.4331055,-0.052734375,0.0501709,-0.095581055,176
-65.61279,140.67078,119.03381,-0.010009766,-0.28125,1.4638672,-0.052734375,0.0501709,-0.095581055,177
-56.19812,133.04138,121.42944,-0.015136719,-0.35961914,1.4206543,-0.06921387,0.045043945,-0.10144043,178
-49.484253,134.68933,138.04626,-0.00390625,-0.36791992,1.3793945,-0.06921387,0.045043945,-0.10144043,179
-82.901,135.55908,146.42334,-0.002197266,-0.39135742,1.3498535,-0.09265137,0.030761719,-0.10583496,180
-111.190796,138.71765,150.177,-0.020263672,-0.43530273,1.3535156,-0.09265137,0.030761719,-0.10583496,181
-118.08777,142.33398,144.22607,-0.0715332,-0.32617188,1.4006348,-0.09265137,0.030761719,-0.10583496,182
-136.41357,156.28052,146.34705,-0.1586914,-0.3137207,1.4660645,-0.1138916,0.020874023,-0.11608887,183
-146.57593,157.66907,156.47888,-0.21923828,-0.2878418,1.5209961,-0.1138916,0.020874023,-0.11608887,184
-158.47778,137.75635,163.45215,-0.23486328,-0.24975586,1.5637207,-0.13330078,0.010986328,-0.12084961,185
-193.0542,104.660034,167.49573,-0.20898438,-0.19848633,1.6118164,-0.13330078,0.010986328,-0.12084961,186
-336.83777,181.64062,184.18884,-0.2783203,-0.10498047,1.7612305,-0.13330078,0.010986328,-0.12084961,187
-135.26917,-70.3125,199.35608,-0.13012695,-0.009521484,1.8034668,-0.14831543,-0.020141602,-0.12854004,188
-215.4541,14.251709,144.82117,-0.21142578,0.026123047,2.064209,-0.14831543,-0.020141602,-0.12854004,189
-400.55847,94.818115,100.31128,-0.2253418,0.055419922,2.113037,-0.17028809,-0.042114258,-0.13696289,190
-410.81238,115.875244,20.03479,-0.24121094,0.0949707,2.1574707,-0.17028809,-0.042114258,-0.13696289,191
-402.13013,168.99109,-57.32727,-0.2800293,-0.005859375,2.2270508,-0.17028809,-0.042114258,-0.13696289,192
-451.52283,211.51733,-96.31348,-0.27270508,-0.17163086,2.2487793,-0.18054199,-0.07800293,-0.13989258,193
-499.90845,252.82288,-119.43054,-0.28100586,-0.28686523,2.2653809,-0.18054199,-0.07800293,-0.13989258,194
-500,273.26965,-109.39026,-0.26098633,-0.4074707,2.2626953,-0.18054199,-0.020507812,-0.13476562,195
-500,332.7942,-126.37329,-0.27563477,-0.48876953,2.3146973,-0.18859863,-0.11425781,-0.13476562,196
-500,317.52014,-141.76941,-0.22485352,-0.4909668,2.305664,-0.18859863,-0.11425781,-0.13476562,197
-499.16077,285.6598,-152.72522,-0.15698242,-0.46313477,2.2895508,-0.1809082,-0.13513184,-0.12451172,198
-459.57947,262.90894,-166.41235,-0.08935547,-0.46655273,2.2971191,-0.1809082,-0.13513184,-0.12451172,199
-438.41553,252.73132,-147.33887,-0.055664062,-0.45507812,2.28125,-0.1809082,-0.13513184,-0.10144043,200
-419.18945,247.34497,-123.07739,-0.044189453,-0.43823242,2.2167969,-0.2211914,-0.18859863,-0.10144043,201
-409.1339,239.70032,-102.84424,-0.048828125,-0.46166992,2.1325684,-0.2211914,-0.18859863,-0.10144043,202
-406.00586,235.21423,-91.96472,-0.06738281,-0.49267578,2.059082,-0.2611084,-0.23693848,-0.08496094,203
-412.46033,233.47473,-81.49719,-0.1015625,-0.50634766,1.9772949,-0.2611084,-0.23693848,-0.08496094,204
-436.8744,244.59839,-61.38611,-0.14746094,-0.49316406,1.8918457,-0.2611084,-0.23693848,-0.060424805,205
-449.3866,267.41028,-50.354004,-0.19921875,-0.45947266,1.8444824,-0.26220703,-0.23730469,-0.060424805,206
-438.0188,283.08105,-43.71643,-0.2133789,-0.42163086,1.8000488,-0.26220703,-0.23730469,-0.060424805,207
-411.08704,282.79114,-41.96167,-0.21459961,-0.35546875,1.7546387,-0.26220703,-0.24499512,-0.032226562,208
-385.7422,280.1361,-34.805298,-0.21191406,-0.28295898,1.6933594,-0.26220703,-0.24499512,-0.032226562,209
-373.97766,277.8015,-46.813965,-0.22070312,-0.22338867,1.59375,-0.26220703,-0.24499512,-0.032226562,210
-366.76025,275.16174,-60.88257,-0.2253418,-0.18530273,1.4829102,-0.288208,-0.27282715,-0.009521484,211
-341.06445,272.8119,-78.14026,-0.22021484,-0.18188477,1.3574219,-0.288208,-0.27282715,-0.009521484,212
-290.57312,254.19617,-64.37683,-0.17553711,-0.19067383,1.1269531,-0.31896973,-0.30651855,0.016113281,214
-268.6615,239.37988,-41.44287,-0.15600586,-0.16235352,1.0629883,-0.31896973,-0.30651855,0.016113281,215
-247.71118,222.09167,-28.808594,-0.1484375,-0.18530273,0.9885254,-0.34313965,-0.33398438,0.03955078,216
-228.50037,208.28247,-25.878906,-0.16699219,-0.10131836,0.9145508,-0.34313965,-0.33398438,0.03955078,217
-220.10803,205.55115,-27.786255,-0.18969727,-0.09472656,0.8215332,-0.36071777,-0.35046387,0.06518555,218
-212.28027,205.58167,-23.80371,-0.20361328,-0.095214844,0.7402344,-0.36071777,-0.35046387,0.06518555,219
-199.15771,201.6449,-4.0130615,-0.18823242,-0.09082031,0.6347656,-0.36071777,-0.35046387,0.06518555,220
-199.37134,189.92615,22.369385,-0.16674805,-0.07763672,0.52319336,-0.36657715,-0.35705566,0.0871582,221
-205.29175,180.41992,56.44226,-0.15600586,-0.075927734,0.41577148,-0.36657715,-0.35705566,0.0871582,222
-213.34839,163.58948,87.90588,-0.16479492,-0.08691406,0.29833984,-0.35668945,-0.35046387,0.10913086,223
-210.55603,142.85278,99.89929,-0.16430664,-0.06933594,0.18017578,-0.35668945,-0.35046387,0.10913086,224
-206.35986,120.910645,93.76526,-0.15454102,-0.030029297,0.072021484,-0.35668945,-0.35046387,0.10913086,225
-202.75879,94.818115,75.37842,-0.15014648,0.007324219,-0.009033203,-0.33728027,-0.33581543,0.13220215,226
-179.33655,69.15283,56.900024,-0.15234375,0.032714844,-0.052978516,-0.33728027,-0.33581543,0.13220215,227
-151.79443,43.07556,35.26306,-0.15039062,0.0546875,-0.087646484,-0.32226562,-0.32922363,0.14978027,228
-129.02832,17.837524,15.686035,-0.14233398,0.0793457,-0.13134766,-0.32226562,-0.32922363,0.14978027,229
-115.600586,0.93078613,2.7770996,-0.18579102,0.10180664,-0.16796875,-0.32226562,-0.32922363,0.14978027,230
-106.277466,-6.30188,-6.1035156,-0.10424805,0.118896484,-0.18408203,-0.3244629,-0.33325195,0.1640625,231
-94.451904,-2.8533936,0.2746582,-0.08666992,0.12182617,-0.17578125,-0.3244629,-0.33325195,0.1640625,232
-84.83887,3.8452148,24.780273,-0.057128906,0.114746094,-0.15795898,-0.32299805,-0.32922363,0.1706543,233
-72.34192,6.5612793,55.847168,-0.022949219,0.10668945,-0.14624023,-0.32299805,-0.32922363,0.1706543,234
-59.61609,3.40271,83.02307,0.014892578,0.09643555,-0.14208984,-0.32299805,-0.32922363,0.1706543,235
-47.6532,-3.7231445,101.8219,0.03564453,0.08959961,-0.1472168,-0.3112793,-0.3218994,0.17541504,236
-32.043457,-14.678955,114.57825,0.046875,0.095703125,-0.16430664,-0.3112793,-0.3218994,0.17541504,237
-11.367798,-26.046753,117.630005,0.05102539,0.111328125,-0.19921875,-0.3050537,-0.32739258,0.17907715,238
1.7242432,-32.058716,109.84802,0.048095703,0.12915039,-0.22802734,-0.3050537,-0.32739258,0.17907715,239
11.611938,-35.003662,102.61536,0.040771484,0.1459961,-0.2421875,-0.3050537,-0.32739258,0.17907715,240
19.714355,-35.41565,98.31238,0.024658203,0.15820312,-0.23803711,-0.29736328,-0.32556152,0.1776123,241
25.894165,-36.743164,100.69275,0.013916016,0.17822266,-0.22094727,-0.29736328,-0.32556152,0.1776123,242
33.355713,-42.648315,102.03552,0.061767578,0.21362305,-0.19873047,-0.29736328,-0.32556152,0.17358398,243
43.395996,-54.351807,97.65625,-0.014404297,0.25927734,-0.17578125,-0.27539062,-0.31384277,0.17358398,244
60.85205,-69.30542,85.38818,-0.025878906,0.2524414,-0.16113281,-0.27539062,-0.31384277,0.17358398,245
80.596924,-82.351685,68.13049,-0.038330078,0.35742188,-0.14624023,-0.2680664,-0.31677246,0.16918945,246
94.92493,-93.38379,48.736572,-0.051757812,0.38208008,-0.12402344,-0.2680664,-0.31677246,0.16918945,247
107.25403,-99.975586,37.231445,-0.05908203,0.3894043,-0.10229492,-0.2680664,-0.31677246,0.16918945,248
118.19458,-106.71997,26.45874,-0.053466797,0.38745117,-0.080078125,-0.26367188,-0.31860352,0.16149902,249
127.38037,-116.363525,4.3029785,-0.036865234,0.36865234,-0.05883789,-0.26367188,-0.31860352,0.16149902,250
132.26318,-126.05286,-8.300781,-0.007568359,0.3310547,-0.043945312,-0.26257324,-0.31896973,0.14831543,251
135.68115,-133.95691,-11.444092,0.01953125,0.26953125,-0.024658203,-0.26257324,-0.31896973,0.14831543,252
134.24683,-137.57324,3.2958984,0.035888672,0.19067383,0.015625,-0.26257324,-0.31896973,0.13220215,253
135.13184,-136.21521,20.67566,0.046875,0.13012695,0.06225586,-0.26220703,-0.31567383,0.13220215,254
138.04626,-134.552,46.661377,0.049804688,0.08618164,0.11254883,-0.26220703,-0.31567383,0.13220215,255
146.86584,-133.80432,66.81824,0.03930664,0.0690918,0.17919922,-0.2541504,-0.3109131,0.12121582,0
161.75842,-131.95801,75.85144,0.024414062,0.07885742,0.24121094,-0.2541504,-0.3109131,0.12121582,1
181.427,-130.92041,71.68579,0.016113281,0.09692383,0.3112793,-0.2541504,-0.3109131,0.12121582,2
214.01978,-129.94385,51.727295,0.010253906,0.111572266,0.3857422,-0.23913574,-0.29992676,0.10437012,3
243.24036,-127.73132,26.260376,0.011962891,0.11791992,0.4345703,-0.23913574,-0.29992676,0.10437012,4
262.68005,-122.72644,0.579834,0.020019531,0.10498047,0.46899414,-0.23291016,-0.29663086,0.08129883,5
269.56177,-118.43872,-21.30127,0.036376953,0.06689453,0.49291992,-0.23291016,-0.29663086,0.08129883,6
267.6239,-116.16516,-25.497437,0.05029297,0.014160156,0.51660156,-0.23291016,-0.29663086,0.08129883,7
264.64844,-116.07361,-8.148193,0.049316406,-0.041015625,0.5683594,-0.22998047,-0.28381348,0.060791016,8
264.37378,-119.277954,23.727417,0.032470703,-0.06567383,0.65234375,-0.22998047,-0.28381348,0.060791016,9
265.59448,-123.12317,44.692993,0.017578125,-0.060302734,0.7297363,-0.22045898,-0.27246094,0.036621094,10
272.01843,-130.26428,55.05371,0.002197266,-0.04321289,0.78271484,-0.22045898,-0.27246094,0.036621094,11
275.589,-131.5155,61.416626,-0.032226562,-0.040771484,0.83496094,-0.22045898,-0.27246094,0.036621094,12
277.3285,-124.298096,66.87927,-0.06616211,-0.045166016,0.8757324,-0.21057129,-0.2574463,0.020141602,13
293.1671,-116.56189,64.94141,-0.10961914,-0.043945312,0.8977051,-0.21057129,-0.2574463,0.020141602,14
309.03625,-108.96301,54.748535,-0.14819336,-0.040283203,0.9291992,-0.2006836,-0.2442627,-0.002929688,15
324.00513,-106.58264,42.816162,-0.18408203,-0.03857422,0.96606445,-0.2006836,-0.2442627,-0.002929688,16
327.92664,-110.5957,25.497437,-0.21386719,-0.05053711,1.0244141,-0.2006836,-0.2442627,-0.002929688,17
324.17297,-121.12427,14.526367,-0.24633789,-0.07519531,1.105957,-0.19921875,-0.23291016,-0.018676758,18
309.7992,-131.16455,14.73999,-0.26416016,-0.104003906,1.2006836,-0.19921875,-0.23291016,-0.018676758,19
296.12732,-140.91492,20.050049,-0.2692871,-0.13476562,1.3210449,-0.1940918,-0.22265625,-0.040283203,20
292.8009,-154.068,20.233154,-0.27148438,-0.17919922,1.416748,-0.1940918,-0.22265625,-0.040283203,21
301.86462,-153.06091,12.4053955,-0.2770996,-0.22241211,1.463623,-0.1940918,-0.22265625,-0.040283203,22
316.71143,-152.09961,1.3427734,-0.2902832,-0.25561523,1.4782715,-0.1907959,-0.21057129,-0.045043945,23
342.25464,-144.37866,-9.887695,-0.3137207,-0.2578125,1.4831543,-0.1907959,-0.21057129,-0.045043945,24
347.42737,-133.80432,-10.238647,-0.36132812,-0.2854004,1.5026855,-0.18383789,-0.19042969,-0.06774902,25
425.2777,-217.63611,3.5095215,-0.3876953,-0.28344727,1.559082,-0.18383789,-0.19042969,-0.06774902,26
366.18042,-199.03564,39.657593,-0.46948242,-0.33666992,1.713623,-0.18383789,-0.19042969,-0.06774902,27
301.08643,-245.62073,65.94849,-0.4873047,-0.3400879,1.8168945,-0.17504883,-0.1673584,-0.088256836,28
350.84534,-305.67932,101.08948,-0.47143555,-0.25610352,1.9438477,-0.17504883,-0.1673584,-0.088256836,29
382.20215,-337.265,110.16846,-0.4572754,-0.20776367,2.119629,-0.16516113,-0.16259766,-0.1003418,30
363.86108,-311.203,128.31116,-0.43066406,-0.19262695,2.2641602,-0.16516113,-0.16259766,-0.1003418,31
313.07983,-247.7417,139.43481,-0.42089844,-0.16674805,2.3515625,-0.16516113,-0.16259766,-0.1003418,32
235.09216,-181.6864,89.56909,-0.3701172,-0.14648438,2.371582,-0.11425781,-0.09411621,-0.10949707,33
297.71423,-90.59143,95.336914,-0.36938477,0.040527344,2.402588,-0.11425781,-0.09411621,-0.10949707,34
355.02625,-99.59412,95.443726,-0.28149414,0.076416016,2.394043,-0.11425781,-0.09411621,-0.10949707,35
286.49902,-70.34302,45.715332,-0.32666016,0.044677734,2.411377,-0.11315918,-0.07470703,-0.1204834,36
191.8335,-71.73157,8.056641,-0.35327148,0.06958008,2.3623047,-0.11315918,-0.07470703,-0.1204834,37
232.80334,-105.163574,-11.993408,-0.3256836,0.15649414,2.2624512,-0.06518555,-0.011352539,-0.12194824,38
285.8734,-134.7351,-6.6833496,-0.2854004,0.21704102,2.2351074,-0.06518555,-0.011352539,-0.12194824,39
273.6969,-152.5116,-11.932373,-0.23095703,0.22753906,2.2155762,-0.06518555,-0.011352539,-0.12194824,40
260.68115,-182.8003,-20.67566,-0.13671875,0.25756836,2.1699219,-0.057128906,0.009521484,-0.119384766,41
283.03528,-193.7561,-58.60901,-0.01977539,0.3269043,2.1257324,-0.057128906,0.009521484,-0.119384766,42
291.38184,-179.47388,-98.083496,0.06567383,0.3305664,2.0847168,-0.046142578,0.022338867,-0.11352539,43
290.66467,-124.45068,-129.3335,0.079833984,0.3010254,2.0612793,-0.046142578,0.022338867,-0.11352539,44
285.53772,-83.57239,-157.48596,0.14990234,0.29492188,1.9909668,-0.046142578,0.022338867,-0.11352539,45
226.47095,-10.08606,-138.59558,0.16503906,0.21362305,1.9572754,-0.033691406,0.03552246,-0.1105957,46
276.07727,-41.915894,-206.57349,0.21899414,0.2746582,1.845459,-0.033691406,0.03552246,-0.1105957,47
245.36133,11.398315,-258.52966,0.13330078,0.26416016,1.8061523,-0.033691406,0.041381836,-0.10290527,48
287.55188,-43.563843,-194.7937,0.18823242,0.26489258,1.671875,-0.033691406,0.041381836,-0.10290527,49
258.52966,-101.95923,-151.42822,0.10229492,0.24121094,1.4990234,-0.036987305,0.045776367,-0.10473633,51
238.75427,-126.00708,-150.84839,0.06591797,0.26782227,1.4306641,-0.036987305,0.045776367,-0.10473633,52
224.33472,-146.6217,-152.90833,0.040771484,0.30810547,1.3984375,-0.034423828,0.048339844,-0.10290527,54
201.72119,-136.09314,-141.26587,0.061767578,0.3017578,1.4213867,-0.034423828,0.048339844,-0.10290527,55
176.34583,-112.06055,-119.55261,0.10131836,0.2932129,1.4306641,-0.030395508,0.057495117,-0.10070801,56
160.85815,-73.898315,-102.06604,0.12890625,0.29760742,1.3945312,-0.030395508,0.057495117,-0.10070801,57
159.85107,-33.447266,-103.79028,0.12719727,0.30541992,1.324707,-0.021240234,0.064819336,-0.09631348,58
150.84839,-3.8909912,-114.18152,0.08544922,0.2861328,1.2214355,-0.021240234,0.064819336,-0.09631348,59
137.00867,11.611938,-119.140625,0.014892578,0.23388672,1.1186523,-0.021240234,0.064819336,-0.09631348,60
118.17932,0.19836426,-110.91614,-0.08227539,0.16235352,1.0043945,-0.017211914,0.06958008,-0.09484863,61
96.54236,-38.208008,-90.0116,-0.12548828,0.10253906,0.88500977,-0.017211914,0.06958008,-0.09484863,62
58.685303,-67.74902,-51.849365,-0.21728516,0.010009766,0.8273926,-0.012817383,0.0769043,-0.09484863,63
-32.76062,-22.720337,-6.7749023,-0.2746582,-0.04711914,0.8342285,-0.012817383,0.0769043,-0.09484863,64
49.28589,-84.350586,52.764893,-0.19897461,0.012695313,0.8000488,-0.012817383,0.0769043,-0.09484863,65
43.24341,-74.905396,39.489746,-0.19799805,-0.000732422,0.85595703,-0.004760742,0.08166504,-0.09118652,66
10.437012,-64.712524,24.44458,-0.16137695,-0.01928711,0.8779297,-0.004760742,0.08166504,-0.09118652,67
8.651733,-37.216187,24.856567,-0.12060547,0.009521484,0.88842773,0.004394531,0.0871582,-0.08862305,68
7.9193115,-9.689331,21.820068,-0.079589844,0.015380859,0.8959961,0.004394531,0.0871582,-0.08862305,69
-1.1291504,18.356323,27.374268,-0.052734375,0.021972656,0.9082031,0.004394531,0.0871582,-0.08862305,70
-11.795044,50.704956,35.17151,-0.030029297,0.036865234,0.91748047,0.010620117,0.091918945,-0.09082031,71
-15.396118,83.49609,30.288696,-0.08227539,-0.045166016,0.90478516,0.010620117,0.091918945,-0.09082031,72
10.910034,48.49243,-4.3640137,-0.052734375,0.10644531,0.84277344,0.010620117,0.09118652,-0.09448242,73
-6.713867,76.00403,60.195923,-0.060302734,0.056396484,0.83862305,0.00769043,0.09118652,-0.09448242,74
-53.93982,54.56543,45.776367,-0.12475586,0.045166016,0.78881836,0.00769043,0.09118652,-0.09448242,75
-21.209717,7.5531006,6.713867,-0.12695312,0.10839844,0.795166,0.006225586,0.09741211,-0.09338379,76
13.458252,-36.04126,-9.262085,-0.11230469,0.12524414,0.83203125,0.006225586,0.09741211,-0.09338379,77
12.634277,-67.230225,-26.489258,-0.1237793,0.119140625,0.86499023,0.006225586,0.18200684,-0.09411621,78
5.92041,-71.56372,-25.375366,-0.13500977,0.1159668,0.87231445,0.002563477,0.088256836,-0.09411621,79
-1.1291504,-56.19812,-20.355225,-0.14160156,0.107666016,0.88842773,0.002563477,0.088256836,-0.09411621,80
-5.5389404,-44.0979,-21.54541,-0.12963867,0.10229492,0.9091797,0.001831055,0.08312988,-0.09008789,81
-58.242798,-14.221191,-36.78894,-0.08886719,0.11230469,1.0058594,-0.004394531,0.072509766,-0.0871582,84
-74.1272,0.6561279,-27.572632,-0.09350586,0.10522461,1.0388184,-0.004394531,0.072509766,-0.0871582,85
-79.58984,22.079468,-13.977051,-0.10180664,0.088378906,1.067627,-0.015014648,0.057128906,-0.08898926,86
-78.948975,28.808594,-2.6245117,-0.09887695,0.057617188,1.0749512,-0.015014648,0.057128906,-0.08898926,87
-71.21277,25.466919,1.9226074,-0.09008789,0.027832031,1.0756836,-0.015014648,0.057128906,-0.08898926,88
-63.26294,20.324707,8.911133,-0.07055664,-0.008056641,1.0888672,-0.0234375,0.046142578,-0.0904541,89
-67.93213,17.715454,15.12146,-0.037597656,-0.044433594,1.1098633,-0.0234375,0.046142578,-0.0904541,90
-75.97351,23.6969,14.968872,-0.009521484,-0.083984375,1.1333008,-0.028930664,0.03515625,-0.091552734,91
-85.357666,36.575317,24.749756,0.013427734,-0.13208008,1.1777344,-0.028930664,0.03515625,-0.091552734,92
-57.57141,43.655396,33.355713,0.061523438,-0.15039062,1.2753906,-0.028930664,0.03515625,-0.091552734,93
-111.34338,127.76184,48.599243,0.068115234,-0.19848633,1.392334,-0.05090332,0.016845703,-0.087524414,94
-126.327515,149.01733,84.70154,0.15136719,-0.20239258,1.4694824,-0.05090332,0.016845703,-0.087524414,95
-102.40173,178.05481,121.24634,0.2133789,-0.17919922,1.5422363,-0.05859375,0.010253906,-0.09887695,96
-122.31445,196.30432,137.55798,0.24609375,-0.19458008,1.5908203,-0.05859375,0.010253906,-0.09887695,97
-161.81946,206.9397,151.41296,0.2541504,-0.2043457,1.6166992,-0.05859375,0.010253906,-0.09887695,98
-189.7583,218.64319,163.55896,0.2133789,-0.2097168,1.6254883,-0.087524414,-0.009887695,-0.104003906,99
-207.99255,233.32214,171.70715,0.18164062,-0.21240234,1.6413574,-0.087524414,-0.009887695,-0.104003906,100
-216.70532,240.15808,173.20251,0.030761719,-0.1965332,1.6662598,-0.1138916,-0.02709961,-0.110961914,101
-223.9685,241.62292,162.82654,-0.03466797,-0.16430664,1.6887207,-0.1138916,-0.02709961,-0.110961914,102
-226.45569,226.05896,136.50513,-0.07299805,-0.1105957,1.706543,-0.1138916,-0.02709961,-0.110961914,103
-416.25977,380.59998,134.14001,-0.17236328,-0.15356445,1.9697266,-0.14208984,-0.046875,-0.11682129,105
-83.740234,38.406372,189.0564,-0.07910156,-0.1472168,1.815918,-0.19006348,-0.1003418,-0.1307373,106
-84.04541,118.7439,162.56714,-0.22875977,-0.12524414,1.940918,-0.19006348,-0.1003418,-0.1307373,107
-394.27185,233.29163,175.85754,-0.2722168,-0.29833984,1.9277344,-0.19006348,-0.1003418,-0.1307373,108
-465.36255,258.36182,185.0586,-0.2409668,-0.12792969,1.927002,-0.18933105,-0.09118652,-0.13476562,109
-376.61743,277.75574,137.9242,-0.25561523,-0.05078125,1.9780273,-0.18933105,-0.09118652,-0.13476562,110
-320.25146,255.58472,74.43237,-0.2277832,-0.1171875,2.055664,-0.2142334,-0.13330078,-0.13513184,111
-353.24097,248.9624,46.829224,-0.20361328,-0.19433594,2.0942383,-0.2142334,-0.13330078,-0.13513184,112
-439.6057,268.5089,49.545288,-0.18896484,-0.26000977,2.0771484,-0.2142334,-0.13330078,-0.13513184,113
-487.2589,289.87122,89.58435,-0.2043457,-0.3095703,2.0686035,-0.21057129,-0.14428711,-0.12487793,114
-493.19458,342.8955,122.528076,-0.21533203,-0.3227539,2.1018066,-0.21057129,-0.14428711,-0.12487793,115
-470.36743,338.6078,117.34009,-0.1940918,-0.2849121,2.0922852,-0.19299316,-0.14758301,-0.106933594,116
-388.93127,301.7273,72.15881,-0.19555664,-0.1352539,2.0632324,-0.19299316,-0.14758301,-0.106933594,117
-334.9762,263.41248,23.81897,-0.21411133,0.001708984,2.0073242,-0.19299316,-0.14758301,-0.106933594,118
-323.13538,240.34119,-10.4522705,-0.2409668,0.111572266,1.9160156,-0.21679688,-0.1842041,-0.08862305,119
-330.93262,226.13525,-28.640747,-0.25585938,0.17236328,1.8066406,-0.21679688,-0.1842041,-0.08862305,120
-342.25464,202.81982,-42.800903,-0.22753906,0.17651367,1.7148438,-0.21679688,-0.12121582,-0.072509766,121
-358.94775,172.33276,-45.288086,-0.1665039,0.16333008,1.6276855,-0.23950195,-0.21496582,-0.072509766,122
-373.47412,139.34326,-42.099,-0.09863281,0.15820312,1.574707,-0.23950195,-0.21496582,-0.072509766,123
-380.82886,118.774414,-50.750732,-0.038085938,0.18041992,1.5437012,-0.2647705,-0.24865723,-0.0501709,124
-392.19666,120.773315,-67.45911,-0.003417969,0.20043945,1.5209961,-0.2647705,-0.24865723,-0.0501709,125
-424.3927,145.03479,-74.63074,0.036865234,0.18896484,1.5153809,-0.2647705,-0.25854492,-0.026733398,126
-447.37244,165.9851,-68.84766,0.07519531,0.13916016,1.5183105,-0.26989746,-0.25854492,-0.026733398,127
-456.7871,186.73706,-73.287964,0.10058594,0.122802734,1.5522461,-0.26989746,-0.25854492,-0.026733398,128
-434.50928,202.19421,-68.740845,0.1352539,0.15258789,1.5922852,-0.26184082,-0.25964355,0.002563477,129
-386.16943,199.58496,-91.049194,0.14916992,0.21289062,1.5900879,-0.26184082,-0.25964355,0.002563477,130
-319.36646,183.39539,-127.36511,0.16308594,0.2619629,1.5529785,-0.26184082,-0.25964355,0.002563477,131
-267.53235,168.59436,-154.66309,0.1809082,0.25073242,1.4758301,-0.27575684,-0.27685547,0.024169922,132
-238.66272,157.69958,-155.5481,0.18334961,0.20629883,1.3930664,-0.27575684,-0.27685547,0.024169922,133
-215.08789,143.78357,-143.11218,0.19165039,0.1472168,1.3120117,-0.30395508,-0.2977295,0.041015625,134
-206.26831,124.09973,-121.20056,0.20507812,0.087890625,1.2275391,-0.30395508,-0.2977295,0.041015625,135
-215.40833,108.078,-100.69275,0.19897461,0.02368164,1.157959,-0.30395508,-0.2977295,0.041015625,136
-249.42017,92.74292,-56.793213,0.15283203,-0.092285156,1.005127,-0.32739258,-0.32666016,0.05822754,138
-258.1482,92.23938,-42.053223,0.12060547,-0.103027344,0.9116211,-0.3552246,-0.35009766,0.08496094,139
-255.35583,116.45508,-28.305054,0.064697266,-0.08544922,0.8105469,-0.3552246,-0.35009766,0.08496094,140
-249.75586,143.35632,-9.811401,0.017578125,-0.06738281,0.7067871,-0.3552246,-0.35009766,0.08496094,141
-239.16626,164.10828,9.552002,-0.020019531,-0.057128906,0.6296387,-0.3684082,-0.3585205,0.10656738,142
-230.31616,177.30713,29.632568,-0.05029297,-0.045166016,0.5246582,-0.3684082,-0.3585205,0.10656738,143
-232.33032,175.27771,43.411255,-0.072265625,-0.041992188,0.4951172,-0.34936523,-0.34020996,0.13366699,144
-233.65784,156.73828,46.76819,-0.08105469,-0.04248047,0.37353516,-0.34936523,-0.34020996,0.13366699,145
-229.66003,128.18909,49.1333,-0.079589844,-0.030273438,0.31445312,-0.34936523,-0.34020996,0.13366699,146
-211.30371,85.96802,46.524048,-0.123046875,0.000488281,0.26049805,-0.32373047,-0.3178711,0.16186523,147
-188.23242,48.355103,41.397095,-0.022216797,0.037597656,0.21728516,-0.32373047,-0.3178711,0.16186523,148
-160.49194,21.30127,33.12683,0.005615234,0.080566406,0.19067383,-0.31750488,-0.31713867,0.17980957,149
-131.13403,12.237549,26.626587,0.011962891,0.1027832,0.15698242,-0.31750488,-0.31713867,0.17980957,150
-118.011475,17.166138,26.626587,0.004150391,0.12524414,0.11450195,-0.31750488,-0.31713867,0.17980957,151
-116.27197,39.0625,29.647827,-0.015625,0.1665039,0.055419922,-0.32556152,-0.3277588,0.19006348,152
-115.356445,61.87439,33.233643,-0.03955078,0.2019043,-0.008056641,-0.32556152,-0.3277588,0.19006348,153
-108.87146,73.62366,41.33606,-0.053222656,0.2211914,-0.05859375,-0.32043457,-0.31860352,0.20361328,154
-91.59851,71.5332,52.871704,-0.053222656,0.23461914,-0.09643555,-0.32043457,-0.31860352,0.20361328,155
-72.49451,48.202515,64.27002,-0.03955078,0.24389648,-0.12719727,-0.32043457,-0.31860352,0.20361328,156
-53.42102,16.616821,72.09778,-0.028320312,0.2536621,-0.14746094,-0.30944824,-0.31713867,0.21496582,157
-32.50122,-14.205933,75.97351,-0.010742188,0.27075195,-0.16015625,-0.30944824,-0.31713867,0.21496582,158
-17.8833,-35.568237,77.697754,0.008544922,0.28686523,-0.16845703,-0.31420898,-0.3284912,0.21533203,159
-14.99939,-36.071777,72.35718,0.033203125,0.3022461,-0.17285156,-0.31420898,-0.3284912,0.21533203,160
-14.022827,-26.657104,68.03894,0.076660156,0.31176758,-0.17211914,-0.31420898,-0.3284912,0.21533203,161
-12.6953125,-8.911133,52.65808,0.114990234,0.33911133,-0.16430664,-0.30395508,-0.3182373,0.2142334,162
-10.543823,3.2958984,42.770386,0.15551758,0.3581543,-0.14819336,-0.30395508,-0.3182373,0.2142334,163
0.21362305,5.6610107,33.721924,0.1850586,0.36743164,-0.13427734,-0.28894043,-0.31274414,0.21789551,164
13.977051,0.12207031,32.943726,0.19213867,0.3725586,-0.13745117,-0.28894043,-0.31274414,0.21789551,165
15.029907,-4.852295,40.023804,0.17602539,0.38110352,-0.1574707,-0.28894043,-0.31274414,0.21789551,166
2.3345947,-22.445679,62.072754,0.13134766,0.4296875,-0.19165039,-0.288208,-0.31970215,0.2175293,168
6.729126,-31.99768,63.461304,0.109375,0.45117188,-0.19165039,-0.288208,-0.31970215,0.21496582,169
15.670776,-45.150757,55.267334,0.095458984,0.46826172,-0.19140625,-0.2915039,-0.3218994,0.21496582,170
26.275635,-53.375244,35.873413,0.09375,0.4729004,-0.1875,-0.2915039,-0.3218994,0.21496582,171
35.40039,-54.4281,16.555786,0.107421875,0.46484375,-0.1772461,-0.28308105,-0.3182373,0.21130371,172
48.736572,-49.78943,0.5493164,0.12402344,0.44067383,-0.16479492,-0.28308105,-0.3182373,0.21130371,173
61.782837,-41.748047,-11.138916,0.14331055,0.40307617,-0.15185547,-0.28308105,-0.3182373,0.20874023,174
67.7948,-25.527954,-13.198853,0.16186523,0.3671875,-0.13891602,-0.2808838,-0.31384277,0.20874023,175
71.502686,-17.303467,-10.192871,0.17675781,0.31811523,-0.1237793,-0.2808838,-0.31384277,0.20874023,176
77.682495,-14.434814,-3.479004,0.18603516,0.26635742,-0.09790039,-0.26660156,-0.30029297,0.20031738,177
85.14404,-17.959595,3.9215088,0.1953125,0.22998047,-0.06958008,-0.26660156,-0.30029297,0.20031738,178
95.52002,-26.565552,18.035889,0.20800781,0.20703125,-0.052001953,-0.26660156,-0.30029297,0.20031738,179
102.27966,-43.304443,46.829224,0.20507812,0.18969727,-0.03125,-0.25561523,-0.28930664,0.19189453,180
107.95593,-54.763794,76.431274,0.17675781,0.1706543,0.007568359,-0.25561523,-0.28930664,0.19189453,181
103.16467,-65.582275,99.21265,0.12963867,0.14794922,0.05517578,-0.24499512,-0.28857422,0.18383789,182
109.558105,-76.75171,117.95044,0.087402344,0.13989258,0.10668945,-0.24499512,-0.28857422,0.18383789,183
123.32153,-83.52661,118.65234,0.048583984,0.14501953,0.13916016,-0.24499512,-0.28857422,0.18383789,184
151.01624,-86.30371,102.98157,0.028076172,0.15820312,0.17456055,-0.23474121,-0.28637695,0.17102051,185
180.2063,-82.88574,67.96265,0.017333984,0.17089844,0.19311523,-0.23474121,-0.28637695,0.17102051,186
200.28687,-76.35498,33.477783,0.025146484,0.16137695,0.18237305,-0.22998047,-0.29370117,0.15490723,187
218.55164,-67.092896,-2.243042,0.036132812,0.11767578,0.15649414,-0.22998047,-0.29370117,0.15490723,188
226.51672,-59.60083,-20.126343,0.030517578,0.026367188,0.12792969,-0.22998047,-0.29370117,0.15490723,189
219.20776,-53.588867,-0.091552734,0.014648438,-0.079833984,0.10864258,-0.23071289,-0.29077148,0.1340332,190
207.4585,-55.57251,67.32178,-0.013671875,-0.18017578,0.12719727,-0.23071289,-0.29077148,0.1340332,191
198.5321,-76.72119,164.99329,-0.06518555,-0.21264648,0.21801758,-0.22741699,-0.29040527,0.111328125,192
194.73267,-101.65405,232.43713,-0.1105957,-0.1821289,0.3491211,-0.22741699,-0.29040527,0.111328125,193
201.43127,-136.91711,263.41248,-0.15014648,-0.087402344,0.5,-0.22741699,-0.29040527,0.111328125,194
225.84534,-162.39929,257.41577,-0.19335938,0.037109375,0.65234375,-0.20800781,-0.28710938,0.0970459,195
261.1084,-165.71045,211.42578,-0.2446289,0.14672852,0.7475586,-0.20800781,-0.28710938,0.0970459,196
310.98938,-148.81897,124.86267,-0.29101562,0.22802734,0.7988281,-0.19226074,-0.28198242,0.0769043,197
362.38098,-127.88391,2.89917,-0.2956543,0.2763672,0.78125,-0.19226074,-0.28198242,0.0769043,198
406.03638,-107.055664,-95.10803,-0.2775879,0.2722168,0.7475586,-0.19226074,-0.28198242,0.0769043,199
421.15784,-92.07153,-139.98413,-0.234375,0.18115234,0.73168945,-0.19592285,-0.2709961,0.044311523,200
389.5569,-99.27368,-96.80176,-0.203125,0.027832031,0.80200195,-0.19592285,-0.2709961,0.044311523,201
365.31067,-119.29321,-23.544312,-0.19360352,-0.08911133,0.91625977,-0.1977539,-0.2574463,0.019042969,202
322.73865,-194.06128,56.503296,-0.15429688,-0.12988281,1.2565918,-0.1977539,-0.2574463,0.019042969,204
330.68848,-204.81873,53.344727,-0.14550781,-0.084472656,1.4060059,-0.1907959,-0.2442627,-0.002563477,205
397.97974,-161.84998,8.132935,-0.16088867,0.04638672,1.5698242,-0.18713379,-0.23400879,-0.023803711,207
407.45544,-142.27295,0.5340576,-0.1784668,0.068359375,1.6171875,-0.18713379,-0.23400879,-0.023803711,208
410.15625,-139.00757,6.7749023,-0.19555664,0.068115234,1.6828613,-0.18713379,-0.23400879,-0.023803711,209
414.4745,-154.41895,2.6550293,-0.21899414,0.060546875,1.7468262,-0.19006348,-0.22302246,-0.044311523,210
417.86194,-177.91748,-9.933472,-0.2578125,0.046142578,1.8083496,-0.19006348,-0.22302246,-0.044311523,211
412.8723,-193.92395,-18.966675,-0.30566406,0.021728516,1.8806152,-0.19006348,-0.22302246,-0.06774902,212
405.5786,-199.43237,-19.241333,-0.3388672,0.015136719,1.9667969,-0.17834473,-0.2006836,-0.06774902,213
379.22668,-208.64868,-5.859375,-0.3503418,-0.021972656,2.059082,-0.17834473,-0.2006836,-0.06774902,214
396.1029,-199.87488,-29.35791,-0.3815918,0.028320312,2.144287,-0.18493652,-0.19482422,-0.09008789,215
347.97668,-204.98657,-23.117065,-0.39135742,-0.036376953,2.2053223,-0.18493652,-0.19482422,-0.09008789,216
473.46497,-280.67017,32.852173,-0.36108398,0.042236328,2.238037,-0.18493652,-0.19482422,-0.09008789,217
341.4154,-103.16467,81.588745,-0.43530273,-0.12231445,2.2519531,-0.18273926,-0.17102051,-0.103271484,218
292.08374,-203.18604,-44.509888,-0.38745117,-0.10839844,2.192627,-0.18273926,-0.17102051,-0.103271484,219
396.22498,-171.0968,-89.157104,-0.28881836,0.15649414,2.2490234,-0.16149902,-0.13220215,-0.11315918,220
376.28174,-151.6571,-161.95679,-0.21166992,0.16772461,2.3078613,-0.16149902,-0.13220215,-0.11315918,221
353.53088,-101.15051,-219.32983,-0.15527344,0.20166016,2.3354492,-0.16149902,-0.13220215,-0.11315918,222
319.87,-62.37793,-253.66211,-0.107177734,0.16992188,2.3417969,-0.11755371,-0.057128906,-0.12451172,223
314.07166,-68.67981,-262.7411,-0.032958984,0.1628418,2.2912598,-0.11755371,-0.057128906,-0.12451172,224
308.6548,-86.7157,-257.1411,0.023925781,0.16625977,2.2402344,-0.09118652,-0.017944336,-0.1274414,225
276.9928,-102.874756,-252.54822,0.056152344,0.16064453,2.173584,-0.09118652,-0.017944336,-0.1274414,226
243.17932,-121.154785,-239.9292,0.072021484,0.18041992,2.0861816,-0.09118652,-0.017944336,-0.1274414,227
243.60657,-134.75037,-239.08997,0.07910156,0.19897461,2.0046387,-0.072143555,0.017944336,-0.122680664,228
240.60059,-142.97485,-245.4834,0.087646484,0.18530273,1.9958496,-0.072143555,0.017944336,-0.122680664,229
234.2987,-152.45056,-246.68884,0.095947266,0.15332031,1.8618164,-0.059326172,0.025634766,-0.11828613,230
224.53308,-167.86194,-237.16736,0.114746094,0.11401367,1.7780762,-0.059326172,0.025634766,-0.11828613,231
212.05139,-182.89185,-225.41809,0.13012695,0.08666992,1.7202148,-0.059326172,0.025634766,-0.11828613,232
193.29834,-193.2373,-214.73694,0.1550293,0.064208984,1.6789551,-0.060791016,0.019042969,-0.11315918,233
178.93982,-193.92395,-199.35608,0.17407227,0.05102539,1.6569824,-0.060791016,0.019042969,-0.11315918,234
180.41992,-184.82971,-189.27002,0.17114258,0.041015625,1.6213379,-0.06665039,0.012451172,-0.11425781,235
187.54578,-163.25378,-184.50928,0.14819336,0.034423828,1.5588379,-0.06665039,0.012451172,-0.11425781,236
187.0575,-135.0708,-181.06079,0.1027832,0.032226562,1.4831543,-0.06665039,0.012451172,-0.11425781,237
180.7251,-115.52429,-187.2406,0.04345703,0.025146484,1.4179688,-0.0637207,0.012817383,-0.10986328,238
180.19104,-112.22839,-204.74243,-0.026855469,0.001220703,1.3442383,-0.0637207,0.012817383,-0.10986328,239
190.47546,-125.061035,-210.99854,-0.08959961,-0.036376953,1.2790527,-0.05493164,0.017944336,-0.114990234,240
184.60083,-149.04785,-186.88965,-0.12524414,-0.08251953,1.2434082,-0.05493164,0.017944336,-0.114990234,241
165.49683,-180.9845,-136.82556,-0.13305664,-0.13110352,1.2111816,-0.05493164,0.017944336,-0.114990234,242
145.12634,-215.80505,-72.72339,-0.1159668,-0.18359375,1.1765137,-0.046875,0.021606445,-0.10803223,243
133.63647,-237.25891,-24.230957,-0.10083008,-0.2211914,1.1425781,-0.046875,0.021606445,-0.10803223,244
141.78467,-259.87244,32.974243,-0.07861328,-0.23266602,1.1079102,-0.039916992,0.01977539,-0.10107422,245
63.415527,-192.18445,34.14917,-0.104003906,-0.22583008,1.1022949,-0.039916992,0.01977539,-0.10107422,246
32.974243,-167.77039,25.009155,-0.10620117,-0.2265625,1.0979004,-0.039916992,0.01977539,-0.10107422,247
151.64185,-165.32898,105.8197,-0.024902344,-0.10229492,1.0949707,0.00402832,0.053100586,-0.09301758,248
85.32715,-93.07861,110.77881,-0.001464844,-0.15063477,1.1755371,0.00402832,0.053100586,-0.09301758,249
20.477295,-57.174683,89.538574,-0.1171875,-0.17211914,1.1726074,0.03515625,0.09082031,-0.08935547,250
22.399902,-13.626099,86.16638,-0.12841797,-0.1171875,1.1162109,0.03515625,0.09082031,-0.08935547,251
36.8042,9.262085,80.79529,-0.1303711,-0.076660156,1.0476074,0.03515625,0.09082031,-0.08935547,252
21.072388,45.47119,64.40735,-0.16479492,-0.043701172,1.0192871,0.053466797,0.11206055,-0.08898926,253
3.1585693,76.01929,43.792725,-0.19311523,-0.013183594,1.0046387,0.053466797,0.11206055,-0.08898926,254
11.0321045,79.39148,39.70337,-0.19384766,0.015380859,0.9550781,0.052368164,0.12011719,-0.09484863,255
23.864746,67.82532,50.750732,-0.18359375,0.010009766,0.91064453,0.052368164,0.12011719,-0.09484863,0
21.68274,37.750244,60.821533,-0.15527344,0.003173828,0.8730469,0.052368164,0.12011719,-0.09484863,1
20.904541,-5.7373047,53.05481,-0.13769531,-0.014892578,0.83813477,0.049072266,0.123046875,-0.0970459,2
29.190063,-36.2854,45.516968,-0.09692383,0.005371094,0.83447266,0.049072266,0.123046875,-0.0970459,3
45.562744,-35.095215,37.597656,-0.11401367,-0.030517578,0.8457031,0.049072266,0.123046875,-0.0970459,4
38.16223,-27.511597,5.5999756,-0.1381836,-0.040527344,0.8322754,0.051635742,0.12231445,-0.095581055,5
61.157227,-24.917603,-17.715454,-0.13012695,-0.02758789,0.81103516,0.051635742,0.12231445,-0.095581055,6
66.0553,-22.79663,-28.59497,-0.114990234,-0.025878906,0.79785156,0.044677734,0.1237793,-0.095214844,7
50.827026,-24.642944,-23.80371,-0.09790039,-0.027832031,0.798584,0.044677734,0.1237793,-0.095214844,8
40.405273,-28.701782,-4.7302246,-0.06591797,-0.026855469,0.7973633,0.044677734,0.1237793,-0.095214844,9
27.267456,-28.549194,18.951416,-0.022460938,-0.020507812,0.7993164,0.04650879,0.12561035,-0.09265137,10
17.227173,-27.60315,47.576904,0.01953125,-0.012695313,0.8054199,0.04650879,0.12561035,-0.09265137,11
15.289307,-24.291992,66.604614,0.05859375,-0.003662109,0.814209,0.048339844,0.12670898,-0.092285156,12
1.953125,-30.914307,105.19409,0.11035156,0.011474609,0.82714844,0.048339844,0.12670898,-0.092285156,13
-10.910034,-32.88269,137.72583,0.15161133,0.052490234,0.8725586,0.048339844,0.12670898,-0.092285156,14
-19.729614,-36.758423,157.82166,0.17407227,0.09326172,0.91137695,0.038085938,0.1171875,-0.091918945,15
-23.544312,-36.514282,175.26245,0.17016602,0.12548828,0.95214844,0.038085938,0.1171875,-0.091918945,16
-29.724121,-31.082153,182.23572,0.14038086,0.14331055,0.99194336,0.026367188,0.104003906,-0.0904541,17
-41.046143,-19.302368,180.31311,0.099609375,0.1430664,1.020752,0.026367188,0.104003906,-0.0904541,18
-48.095703,-10.848999,165.84778,0.049560547,0.12817383,1.0224609,0.026367188,0.104003906,-0.0904541,19
-64.98718,4.058838,147.15576,-0.008300781,0.1003418,1.0063477,0.012084961,0.09887695,-0.08679199,20
-90.63721,13.137817,141.49475,-0.052734375,0.05834961,0.9814453,0.012084961,0.09887695,-0.08679199,21
-153.96118,13.412476,134.84192,-0.13745117,-0.02734375,1.0146484,0.002929688,0.09118652,-0.087524414,23
-167.92297,6.6223145,142.92908,-0.15405273,-0.04736328,1.0754395,0.002929688,0.09118652,-0.087524414,24
-167.81616,2.3345947,145.88928,-0.16015625,-0.045654297,1.1530762,-0.01574707,0.07470703,-0.08862305,25
-164.00146,11.642456,137.28333,-0.15405273,-0.045654297,1.2429199,-0.01574707,0.07470703,-0.08862305,26
-147.20154,12.374878,116.08887,-0.111328125,-0.010009766,1.2849121,-0.028930664,0.060058594,-0.08898926,27
-152.22168,33.64563,110.01587,-0.122802734,-0.016113281,1.3364258,-0.028930664,0.060058594,-0.08898926,28
-122.680664,58.776855,50.78125,-0.053222656,0.028320312,1.4064941,-0.028930664,0.060058594,-0.08898926,29
-148.54431,87.90588,-11.993408,-0.07128906,-0.03173828,1.4729004,-0.046875,0.036254883,-0.091552734,30
-164.70337,139.83154,-1.2054443,-0.09301758,-0.13769531,1.5490723,-0.046875,0.036254883,-0.091552734,31
-105.36194,171.9513,41.015625,-0.087646484,-0.22875977,1.6223145,-0.060058594,0.0234375,-0.099243164,32
-93.59741,189.34631,71.899414,-0.07128906,-0.30688477,1.6733398,-0.060058594,0.0234375,-0.099243164,33
-122.802734,188.96484,110.24475,-0.03857422,-0.34277344,1.7492676,-0.060058594,0.0234375,-0.099243164,34
-170.3949,176.95618,155.68542,-0.013427734,-0.3466797,1.6708984,-0.095214844,-0.004760742,-0.107666016,35
-212.92114,167.00745,190.10925,-0.03466797,-0.34594727,1.677002,-0.095214844,-0.004760742,-0.107666016,36
-243.08777,157.53174,213.95874,-0.08935547,-0.3491211,1.7028809,-0.11682129,-0.021972656,-0.11022949,37
-266.7694,149.58191,223.22083,-0.16040039,-0.3720703,1.732666,-0.11682129,-0.021972656,-0.11022949,38
-292.48047,144.8822,223.43445,-0.21191406,-0.39160156,1.7346191,-0.11682129,-0.021972656,-0.11022949,39
-314.8651,137.26807,214.4928,-0.24560547,-0.38745117,1.71875,-0.14245605,-0.03955078,-0.123046875,40
-334.198,138.45825,190.75012,-0.2409668,-0.36376953,1.7229004,-0.14245605,-0.03955078,-0.123046875,41
-291.12244,125.85449,133.17871,-0.2709961,-0.11767578,1.4401855,-0.1640625,-0.07397461,-0.12597656,42
-171.47827,-13.473511,229.62952,-0.15625,-0.35766602,1.6240234,-0.1640625,-0.07397461,-0.12597656,43
-121.45996,10.879517,200.07324,-0.23535156,-0.42578125,1.7897949,-0.1640625,-0.07397461,-0.12597656,44
-402.6184,102.70691,197.98279,-0.3088379,-0.5864258,1.8205566,-0.21606445,-0.12084961,-0.13183594,45
-499.46594,145.15686,222.32056,-0.31884766,-0.49267578,1.7946777,-0.21606445,-0.12084961,-0.13183594,46
-461.42578,140.7013,188.93433,-0.36791992,-0.4345703,1.829834,-0.21606445,-0.10437012,-0.12890625,47
-413.3606,138.79395,145.49255,-0.3864746,-0.4741211,1.8579102,-0.16589355,-0.10437012,-0.12890625,48
-427.85645,129.60815,77.98767,-0.41845703,-0.49414062,1.8469238,-0.16589355,-0.10437012,-0.12890625,49
-482.42188,162.18567,41.732788,-0.4375,-0.46777344,1.770752,-0.1739502,-0.13806152,-0.1171875,50
-498.8098,198.2727,12.207031,-0.46289062,-0.44799805,1.7229004,-0.1739502,-0.13806152,-0.1171875,51
-486.7859,224.7467,-23.529053,-0.45629883,-0.43847656,1.6826172,-0.1739502,-0.13806152,-0.1171875,52
-403.85437,206.75659,-55.023193,-0.3864746,-0.42626953,1.5910645,-0.14172363,-0.13623047,-0.10437012,53
-340.92712,171.46301,-77.23999,-0.33007812,-0.42626953,1.5117188,-0.14172363,-0.13623047,-0.10437012,54
-285.93445,143.41736,-81.1615,-0.31835938,-0.41552734,1.4179688,-0.15234375,-0.16223145,-0.091918945,55
-273.81897,138.39722,-63.26294,-0.32592773,-0.3930664,1.3188477,-0.15234375,-0.16223145,-0.091918945,56
-275.39062,135.28442,-52.93274,-0.31860352,-0.36645508,1.253418,-0.15234375,-0.16223145,-0.091918945,57
-270.20264,123.413086,-52.993774,-0.28686523,-0.32788086,1.1916504,-0.17028809,-0.18603516,-0.08129883,58
-256.39343,90.7135,-63.461304,-0.23583984,-0.27685547,1.1494141,-0.17028809,-0.18603516,-0.08129883,59
-250.2594,61.645508,-64.84985,-0.20043945,-0.23608398,1.128418,-0.1875,-0.2109375,-0.064819336,60
-253.31116,52.90222,-59.036255,-0.18798828,-0.20629883,1.123291,-0.1875,-0.2109375,-0.064819336,61
-266.11328,68.32886,-53.40576,-0.18359375,-0.19116211,1.1333008,-0.1875,-0.2109375,-0.064819336,62
-277.55737,96.69495,-45.532227,-0.16894531,-0.17749023,1.1501465,-0.20141602,-0.23327637,-0.053833008,63
-282.76062,134.70459,-42.877197,-0.14550781,-0.13769531,1.1640625,-0.20141602,-0.23327637,-0.053833008,64
-275.65002,166.10718,-55.43518,-0.11376953,-0.080322266,1.1657715,-0.19702148,-0.23547363,-0.03955078,65
-254.11987,184.47876,-78.14026,-0.091796875,-0.02368164,1.1501465,-0.19702148,-0.23547363,-0.03955078,66
-230.25513,204.20837,-106.414795,-0.07006836,0.022216797,1.0998535,-0.19702148,-0.23547363,-0.03955078,67
-201.35498,209.21326,-136.99341,-0.064697266,0.047851562,1.0202637,-0.20251465,-0.23510742,-0.025634766,68
-177.52075,207.36694,-151.8097,-0.0690918,0.057861328,0.9448242,-0.20251465,-0.23510742,-0.025634766,69
-167.70935,197.14355,-147.9187,-0.07446289,0.05102539,0.8762207,-0.21606445,-0.24279785,-0.01977539,70
-163.05542,175.9491,-126.205444,-0.07470703,0.029541016,0.8161621,-0.21606445,-0.24279785,-0.01977539,71
-164.21509,152.1759,-97.213745,-0.064697266,0.010253906,0.7841797,-0.21606445,-0.24279785,-0.01977539,72
-158.12683,126.25122,-71.640015,-0.04296875,-0.005615234,0.76904297,-0.23400879,-0.25341797,-0.002197266,73
-144.53125,103.22571,-44.49463,-0.020263672,-0.000976563,0.75439453,-0.23400879,-0.25341797,-0.002197266,74
-136.1847,92.75818,-31.906128,0.012695313,0.010498047,0.7324219,-0.24975586,-0.26696777,0.001464844,75
-129.9591,89.95056,-20.828247,0.04296875,0.023925781,0.7006836,-0.24975586,-0.26696777,0.001464844,76
-121.154785,90.423584,-14.816284,0.06640625,0.03173828,0.66259766,-0.24975586,-0.26696777,0.001464844,77
-112.54883,92.08679,-0.6561279,0.080322266,0.030273438,0.62841797,-0.26184082,-0.28198242,0.012817383,78
-105.148315,89.84375,17.684937,0.079833984,0.017333984,0.5769043,-0.26184082,-0.28198242,0.012817383,79
-97.79358,84.732056,45.08972,0.12451172,-0.002197266,0.5048828,-0.27026367,-0.29589844,0.022338867,80
-89.24866,73.776245,63.49182,0.040039062,-0.012207031,0.43798828,-0.27026367,-0.29589844,0.022338867,81
-79.40674,55.252075,85.357666,0.02319336,-0.004150391,0.359375,-0.27026367,-0.29589844,0.022338867,82
-69.39697,34.332275,98.464966,0.011230469,0.012939453,0.29907227,-0.27392578,-0.30065918,0.026367188,83
-60.668945,13.99231,111.78589,0.001708984,0.028808594,0.2626953,-0.27392578,-0.30065918,0.026367188,84
-52.108765,-0.5950928,125.946045,-0.017089844,0.043701172,0.24536133,-0.2640381,-0.3043213,0.032592773,85
-46.6156,-8.453369,137.96997,-0.0390625,0.063964844,0.23583984,-0.2640381,-0.3043213,0.032592773,86
-42.938232,-13.534546,137.19177,-0.051513672,0.095947266,0.22729492,-0.2640381,-0.3043213,0.032592773,87
-34.301758,-7.4920654,97.64099,-0.0703125,0.1262207,0.21020508,-0.25048828,-0.3043213,0.033325195,89
-21.728516,0.869751,77.941895,-0.07836914,0.22241211,0.20629883,-0.25048828,-0.30249023,0.038085938,90
-8.270264,9.048462,56.869507,-0.08129883,0.24438477,0.20605469,-0.23803711,-0.30249023,0.038085938,91
1.4038086,13.946533,39.8407,-0.07788086,0.25708008,0.20336914,-0.23803711,-0.30249023,0.038085938,92
7.095337,15.029907,30.151367,-0.08081055,0.2529297,0.18920898,-0.22924805,-0.29663086,0.040649414,93
14.541626,13.504028,31.204224,-0.0949707,0.24194336,0.17358398,-0.22924805,-0.29663086,0.040649414,94
20.889282,8.117676,31.37207,-0.11645508,0.23608398,0.15942383,-0.22924805,-0.29370117,0.03845215,95
29.296875,-3.112793,30.960083,-0.13720703,0.2421875,0.15551758,-0.22485352,-0.29370117,0.03845215,96
40.512085,-18.127441,27.58789,-0.14868164,0.25390625,0.16186523,-0.22485352,-0.29370117,0.03845215,97
56.610107,-37.887573,19.638062,-0.15698242,0.26953125,0.17626953,-0.22009277,-0.28674316,0.03552246,98
75.74463,-53.55835,10.925293,-0.16748047,0.2800293,0.19238281,-0.22009277,-0.28674316,0.03552246,99
93.99414,-67.41333,1.5106201,-0.17871094,0.28466797,0.2121582,-0.22009277,-0.28674316,0.03552246,100
113.00659,-80.200195,-8.81958,-0.18554688,0.28051758,0.23120117,-0.20910645,-0.27941895,0.03112793,101
125.09155,-93.12439,-16.326904,-0.1887207,0.26831055,0.18969727,-0.20910645,-0.27941895,0.03112793,102
133.27026,-109.13086,-28.152466,-0.18261719,0.24438477,0.2841797,-0.20947266,-0.27209473,0.028564453,103
138.8855,-124.71008,-30.441284,-0.16601562,0.2055664,0.33325195,-0.20947266,-0.27209473,0.028564453,104
143.28003,-134.59778,-26.733398,-0.14892578,0.16870117,0.38256836,-0.20947266,-0.27209473,0.028564453,105
149.1394,-141.78467,-20.614624,-0.13061523,0.13769531,0.4416504,-0.20874023,-0.2647705,0.021240234,106
159.2102,-144.39392,-11.962891,-0.10473633,0.11816406,0.50439453,-0.20874023,-0.2647705,0.021240234,107
171.81396,-143.4784,-4.3792725,-0.087402344,0.111572266,0.5534668,-0.20178223,-0.2578125,0.010620117,108
180.03845,-142.24243,1.1444092,-0.08105469,0.11035156,0.59936523,-0.20178223,-0.2578125,0.010620117,109
191.0553,-142.89856,0.7171631,-0.080322266,0.11450195,0.6525879,-0.20178223,-0.2578125,0.010620117,110
199.21875,-147.35413,-2.746582,-0.08203125,0.115478516,0.70288086,-0.19555664,-0.24133301,-0.002929688,111
206.43616,-152.29797,-9.216309,-0.080566406,0.11376953,0.75512695,-0.19555664,-0.24133301,-0.002929688,112
207.27539,-155.04456,-17.76123,-0.071777344,0.107666016,0.8190918,-0.18676758,-0.23254395,-0.010986328,113
205.6427,-151.67236,-24.017334,-0.05908203,0.092041016,0.8881836,-0.18676758,-0.23254395,-0.010986328,114
206.87866,-140.45715,-32.89795,-0.047851562,0.047851562,0.95458984,-0.18676758,-0.23254395,-0.010986328,115
220.06226,-127.960205,-47.36328,-0.032470703,0.029296875,0.9970703,-0.18530273,-0.22375488,-0.019042969,116
235.13794,-123.09265,-58.746338,-0.010253906,0.013183594,1.0144043,-0.18530273,-0.22375488,-0.019042969,117
239.57825,-103.07312,-82.39746,-0.010009766,-0.033203125,1.0629883,-0.18566895,-0.22045898,-0.037719727,119
234.375,-114.868164,-33.706665,0.000732422,-0.1184082,1.1452637,-0.18566895,-0.21166992,-0.05053711,122
220.36743,-106.88782,-17.51709,-0.004394531,-0.14038086,1.1586914,-0.18530273,-0.20397949,-0.06262207,123
212.08191,-87.020874,-5.4779053,-0.025878906,-0.14697266,1.1738281,-0.18530273,-0.20397949,-0.06262207,124
205.16968,-54.55017,-6.2408447,-0.067871094,-0.16040039,1.1938477,-0.18530273,-0.20397949,-0.06262207,125
199.27979,-49.89624,-25.131226,-0.07910156,-0.16308594,1.2473145,-0.17541504,-0.1706543,-0.07067871,126
200.69885,-19.180298,-20.03479,-0.13305664,-0.14379883,1.2180176,-0.17541504,-0.1706543,-0.07067871,127
220.62683,-69.25964,-17.25769,-0.16577148,-0.1394043,1.2382812,-0.1607666,-0.15710449,-0.080566406,128
244.38477,-116.69922,-2.1209717,-0.19580078,-0.107910156,1.2871094,-0.1607666,-0.15710449,-0.080566406,129
247.11609,-171.72241,14.175415,-0.22045898,-0.083740234,1.3303223,-0.1607666,-0.15710449,-0.080566406,130
223.89221,-187.30164,39.44397,-0.24633789,-0.123046875,1.3828125,-0.16479492,-0.15563965,-0.08935547,131
194.44275,-169.7998,34.88159,-0.25561523,-0.02709961,1.4431152,-0.16479492,-0.15563965,-0.08935547,132
179.06189,-136.47461,1.4343262,-0.23242188,0.014404297,1.4914551,-0.16479492,-0.1303711,-0.10107422,133
184.26514,-101.42517,-56.503296,-0.19433594,0.051513672,1.5393066,-0.14575195,-0.1303711,-0.10107422,134
191.37573,-77.07214,-105.86548,-0.15771484,0.06567383,1.5725098,-0.14575195,-0.1303711,-0.10107422,135
195.06836,-64.48364,-136.50513,-0.1459961,0.06518555,1.581543,-0.13806152,-0.10437012,-0.107299805,136
193.2373,-65.64331,-140.1062,-0.1586914,0.052001953,1.5825195,-0.13806152,-0.10437012,-0.107299805,137
194.0155,-80.947876,-115.26489,-0.17529297,0.040283203,1.5844727,-0.13806152,-0.10437012,-0.11462402,138
200.88196,-107.49817,-84.04541,-0.17456055,0.048828125,1.5930176,-0.13110352,-0.08605957,-0.11462402,139
210.20508,-139.54163,-56.80847,-0.16821289,0.083740234,1.6020508,-0.13110352,-0.08605957,-0.11462402,140
218.42957,-161.7279,-42.129517,-0.15551758,0.13012695,1.6086426,-0.1171875,-0.059692383,-0.11608887,141
220.71838,-179.00085,-34.469604,-0.13305664,0.1809082,1.6115723,-0.1171875,-0.059692383,-0.11608887,142
222.50366,-190.49072,-36.193848,-0.09692383,0.23657227,1.6137695,-0.1171875,-0.059692383,-0.1138916,143
222.62573,-196.7926,-38.29956,-0.051513672,0.27734375,1.6237793,-0.10107422,-0.03515625,-0.1138916,144
167.03796,-179.84009,-116.34827,0.026611328,0.26293945,1.5979004,-0.08312988,-0.007324219,-0.1138916,146
192.3523,-137.75635,-112.335205,0.08227539,0.39111328,1.5930176,-0.08312988,-0.007324219,-0.1138916,147
133.30078,-108.1543,-78.445435,0.13208008,0.2614746,1.5754395,-0.08312988,-0.007324219,-0.1138916,148
153.71704,-104.41589,-143.82935,0.15185547,0.19580078,1.4267578,-0.05090332,0.011352539,-0.10913086,152
161.40747,-106.048584,-151.35193,0.13476562,0.21728516,1.3996582,-0.05090332,0.011352539,-0.10913086,153
189.02588,-109.695435,-144.104,0.14868164,0.21801758,1.3847656,-0.049804688,0.014282227,-0.110961914,154
183.82263,-95.062256,-140.12146,0.14282227,0.21118164,1.355957,-0.049804688,0.014282227,-0.110961914,155
159.79004,-79.711914,-126.64795,0.15551758,0.20654297,1.3171387,-0.047973633,0.014282227,-0.10803223,156
138.1073,-66.467285,-115.06653,0.16259766,0.21118164,1.2819824,-0.047973633,0.014282227,-0.10803223,157
132.85828,-61.447144,-116.53137,0.16308594,0.22607422,1.2521973,-0.047973633,0.014282227,-0.10803223,158
136.09314,-66.26892,-110.21423,0.17504883,0.2475586,1.2216797,-0.046142578,0.018676758,-0.10986328,159
130.09644,-75.424194,-99.80774,0.17822266,0.26049805,1.2497559,-0.046142578,0.018676758,-0.10986328,160
115.17334,-84.88464,-90.34729,0.16772461,0.26757812,1.1567383,-0.056396484,0.009155273,-0.1105957,161
104.8584,-86.95984,-76.87378,0.1472168,0.26879883,1.1367188,-0.056396484,0.009155273,-0.1105957,162
140.16724,-128.18909,-72.8302,0.17211914,0.30297852,1.0947266,-0.056396484,0.009155273,-0.1105957,163
85.98328,-62.98828,-30.075073,0.11401367,0.26904297,1.1196289,-0.06518555,0.002197266,-0.104003906,164
67.24548,-60.165405,13.183594,0.13891602,0.2355957,1.0908203,-0.06518555,0.002197266,-0.104003906,165
67.91687,-58.273315,-13.122559,0.10522461,0.24902344,1.0678711,-0.0501709,0.013183594,-0.10510254,166
77.20947,-62.77466,-16.113281,0.12719727,0.2524414,1.0476074,-0.0501709,0.013183594,-0.10510254,167
60.47058,-72.18933,11.276245,0.1340332,0.22265625,1.0412598,-0.0501709,0.013183594,-0.10510254,168
27.297974,-54.382324,-9.338379,0.08691406,0.22924805,1.0385742,-0.057128906,0.007324219,-0.10180664,169
-8.117676,-51.818848,-8.956909,0.071777344,0.22729492,1.0336914,-0.057128906,0.007324219,-0.10180664,170
-5.050659,-38.223267,26.016235,0.07006836,0.24169922,1.0505371,-0.05126953,0.008422852,-0.10144043,171
-14.877319,-18.52417,50.354004,0.061035156,0.20605469,1.0776367,-0.05126953,0.008422852,-0.10144043,173
-36.499023,-12.130737,48.76709,0.044921875,0.20678711,1.0776367,-0.057861328,0.003662109,-0.1003418,174
-63.14087,20.309448,47.27173,-0.016113281,0.18530273,1.0778809,-0.05419922,-0.000366211,-0.10107422,176
-69.885254,38.864136,38.269043,-0.053710938,0.15576172,1.0961914,-0.05419922,-0.000366211,-0.10107422,177
-79.97131,52.993774,15.792847,-0.10546875,0.12109375,1.0952148,-0.05419922,-0.000366211,-0.10107422,178
-75.31738,65.65857,-6.3476562,-0.15625,0.091308594,1.0620117,-0.061157227,-0.012084961,-0.099975586,179
-64.590454,74.35608,-31.723022,-0.21679688,0.055664062,1.0227051,-0.061157227,-0.012084961,-0.099975586,180
-55.725098,79.02527,-54.840088,-0.27026367,0.014892578,0.98095703,-0.061157227,-0.016845703,-0.099975586,181
-51.818848,76.27869,-62.77466,-0.31225586,-0.032470703,0.9560547,-0.072509766,-0.016845703,-0.099975586,182
-53.28369,68.06946,-63.36975,-0.3330078,-0.07104492,0.9489746,-0.072509766,-0.016845703,-0.099975586,183
-57.250977,57.357788,-56.030273,-0.34375,-0.11035156,0.9555664,-0.08129883,-0.024902344,-0.10253906,184
2.6397705,0.24414062,-4.837036,-0.23046875,0.03881836,0.9719238,-0.0637207,-0.033325195,-0.12158203,210
0.4119873,0.5187988,-2.243042,-0.23120117,0.030273438,0.9848633,-0.0637207,-0.033325195,-0.12158203,211
4.4555664,5.7373047,-0.76293945,-0.23901367,0.01977539,0.99194336,-0.06225586,-0.029296875,-0.12451172,212
10.1623535,12.34436,1.7089844,-0.24633789,0.01171875,0.98828125,-0.06225586,-0.029296875,-0.12451172,213
13.671875,14.3585205,3.3874512,-0.25219727,0.013427734,0.9733887,-0.06225586,-0.029296875,-0.12524414,214
13.183594,9.70459,3.90625,-0.24926758,0.017578125,0.95214844,-0.06262207,-0.032226562,-0.12524414,215
14.266968,-0.015258789,2.6397705,-0.24731445,0.021484375,0.9379883,-0.06262207,-0.032226562,-0.12524414,216
17.25769,-3.9520264,-0.61035156,-0.24853516,0.02734375,0.9296875,-0.0637207,-0.032592773,-0.12194824,217
23.208618,-5.9051514,-5.1879883,-0.25146484,0.031982422,0.9211426,-0.0637207,-0.032592773,-0.12194824,218
27.282715,-4.1503906,-4.043579,-0.26049805,0.029541016,0.9169922,-0.0637207,-0.029663086,-0.12487793,219
24.505615,-0.1373291,-0.39672852,-0.26904297,0.021484375,0.9189453,-0.0637207,-0.029663086,-0.12487793,220
16.464233,3.753662,3.3416748,-0.2697754,0.016601562,0.92041016,-0.0637207,-0.029663086,-0.12487793,221
9.94873,4.547119,1.9836426,-0.2619629,0.0234375,0.91748047,-0.064086914,-0.029296875,-0.12597656,222
12.512207,2.7008057,-3.692627,-0.2512207,0.030517578,0.9128418,-0.064086914,-0.029296875,-0.12597656,223
18.02063,4.1656494,-8.590698,-0.2487793,0.029541016,0.9116211,-0.064086914,-0.029296875,-0.12597656,224
22.232056,7.507324,-10.070801,-0.25463867,0.022216797,0.91186523,-0.060791016,-0.029296875,-0.122680664,225
23.94104,10.101318,-7.6904297,-0.25952148,0.014404297,0.90405273,-0.060791016,-0.029296875,-0.122680664,226
23.05603,6.729126,-3.5705566,-0.265625,0.008300781,0.8925781,-0.060791016,-0.028930664,-0.12670898,227
20.690918,-2.4414062,0.50354004,-0.2692871,0.005126953,0.8847656,-0.060791016,-0.028930664,-0.12670898,228
18.844604,-11.077881,3.5247803,-0.26660156,0.00390625,0.8886719,-0.060791016,-0.028930664,-0.12670898,229
11.932373,-15.197754,7.4768066,-0.25854492,0.000976563,0.90478516,-0.06298828,-0.02709961,-0.12487793,230
14.862061,-14.633179,12.466431,-0.25341797,-0.011474609,0.9189453,-0.06298828,-0.02709961,-0.12487793,231
15.106201,-11.169434,16.662598,-0.25878906,-0.026855469,0.92089844,-0.060424805,-0.022338867,-0.1237793,232
12.710571,-8.285522,20.339966,-0.26782227,-0.036621094,0.91552734,-0.060424805,-0.022338867,-0.1237793,233
9.277344,-11.276245,24.368286,-0.2692871,-0.033447266,0.90722656,-0.060424805,-0.022338867,-0.1237793,234
8.163452,-20.614624,27.20642,-0.2644043,-0.026855469,0.9020996,-0.060424805,-0.020874023,-0.119018555,235
8.453369,-30.838013,25.665283,-0.25219727,-0.014404297,0.9082031,-0.060424805,-0.020874023,-0.119018555,236
13.122559,-36.43799,19.77539,-0.23632812,-0.007324219,0.92456055,-0.053833008,-0.017944336,-0.12084961,237
20.126343,-30.303955,19.195557,-0.22753906,-0.0078125,0.9484863,-0.053833008,-0.017944336,-0.12084961,238
26.062012,-14.907837,9.521484,-0.22729492,-0.005126953,0.9699707,-0.053833008,-0.017944336,-0.12084961,239
28.366089,0.9613037,5.493164,-0.22753906,0.006103516,0.97558594,-0.048339844,-0.012817383,-0.11975098,240
27.938843,7.9956055,4.3029785,-0.22729492,0.014648438,0.967041,-0.048339844,-0.012817383,-0.11975098,241
23.605347,8.346558,2.1362305,-0.22998047,0.022949219,0.95996094,-0.049438477,-0.008056641,-0.1237793,242
19.16504,5.1574707,0.030517578,-0.23706055,0.029296875,0.9609375,-0.049438477,-0.008056641,-0.1237793,243
20.904541,4.6844482,-2.2583008,-0.24487305,0.025146484,0.95947266,-0.049438477,-0.008056641,-0.1237793,244
25.512695,1.6021729,-1.9683838,-0.24780273,0.017578125,0.95458984,-0.048339844,-0.009521484,-0.12634277,245
29.678345,4.7454834,0.16784668,-0.25512695,0.011962891,0.96484375,-0.048339844,-0.009521484,-0.12634277,246
30.914307,10.421753,4.4555664,-0.2607422,0.002929688,0.9765625,-0.049804688,-0.005493164,-0.12634277,247
34.622192,8.69751,11.306763,-0.2644043,-0.010742188,0.9663086,-0.049804688,-0.005493164,-0.12634277,248
43.70117,3.7231445,16.784668,-0.2644043,-0.018310547,0.94140625,-0.049804688,-0.005493164,-0.12634277,249
50.811768,-12.237549,15.213013,-0.2607422,-0.017822266,0.921875,-0.053100586,-0.00402832,-0.1270752,250
52.749634,-20.27893,12.756348,-0.25585938,-0.017822266,0.9152832,-0.053100586,-0.00402832,-0.1270752,251
54.80957,-26.870728,7.965088,-0.2512207,-0.018554688,0.91430664,-0.048706055,-0.006591797,-0.12963867,252
59.4635,-24.612427,4.7302246,-0.2512207,-0.022216797,0.9199219,-0.048706055,-0.006591797,-0.12963867,253
65.36865,-18.218994,4.4555664,-0.26586914,-0.03930664,0.91381836,-0.048706055,-0.006591797,-0.12963867,254
74.75281,-14.572144,2.0141602,-0.28808594,-0.06933594,0.8881836,-0.049072266,0.001464844,-0.122680664,255
81.451416,-17.730713,1.2664795,-0.30810547,-0.095458984,0.86035156,-0.049072266,0.001464844,-0.122680664,0
68.51196,-29.830933,4.4555664,-0.31396484,-0.11450195,0.83618164,-0.049072266,0.001464844,-0.12561035,1
51.986694,-46.310425,21.621704,-0.31079102,-0.122558594,0.84399414,-0.051635742,0.006958008,-0.12561035,2
45.303345,-52.15454,35.736084,-0.2956543,-0.119140625,0.89208984,-0.051635742,0.006958008,-0.12561035,3
52.39868,-50.598145,54.4281,-0.27124023,-0.09692383,0.9499512,-0.039916992,0.01977539,-0.12158203,4
66.74194,-42.86194,61.065674,-0.24804688,-0.071777344,0.9758301,-0.039916992,0.01977539,-0.12158203,5
75.0885,-34.820557,58.670044,-0.23608398,-0.06689453,0.96606445,-0.039916992,0.01977539,-0.11791992,6
70.15991,-31.204224,54.489136,-0.22973633,-0.07299805,0.95043945,-0.034057617,0.025634766,-0.11791992,7
55.633545,-25.268555,47.531128,-0.22924805,-0.08081055,0.9436035,-0.034057617,0.025634766,-0.11791992,8
53.81775,-26.794434,36.209106,-0.2434082,-0.095703125,0.94677734,-0.033691406,0.032592773,-0.119384766,9
61.035156,-28.015137,31.433105,-0.26098633,-0.10180664,0.95410156,-0.033691406,0.032592773,-0.119384766,10
67.0166,-28.533936,31.829834,-0.2758789,-0.09863281,0.96191406,-0.033691406,0.032592773,-0.119384766,11
67.39807,-29.281616,30.441284,-0.2854004,-0.09301758,0.9707031,-0.029296875,0.0435791,-0.118652344,12
70.60242,-31.051636,27.359009,-0.29296875,-0.09375,0.97314453,-0.029296875,0.0435791,-0.118652344,13
72.891235,-29.037476,17.501831,-0.3017578,-0.103759766,0.9797363,-0.023803711,0.047607422,-0.115722656,14
65.30762,-25.787354,6.713867,-0.31030273,-0.13867188,0.9885254,-0.023803711,0.047607422,-0.115722656,15
61.09619,-19.882202,-9.58252,-0.32250977,-0.17138672,1.0056152,-0.023803711,0.047607422,-0.115722656,16
66.17737,-13.73291,-32.01294,-0.3310547,-0.1977539,1.019043,-0.01940918,0.05493164,-0.111694336,17
75.51575,-6.378174,-54.260254,-0.33740234,-0.22045898,1.0097656,-0.01940918,0.05493164,-0.111694336,18
88.72986,-4.0893555,-73.47107,-0.35058594,-0.24926758,0.96777344,-0.017578125,0.05126953,-0.10583496,19
102.5238,-4.7302246,-77.10266,-0.36157227,-0.27978516,0.90527344,-0.017578125,0.05126953,-0.10583496,20
108.58154,-8.926392,-67.82532,-0.36450195,-0.29882812,0.85791016,-0.017578125,0.05126953,-0.10583496,21
102.18811,-11.672974,-49.240112,-0.35791016,-0.3095703,0.84228516,-0.01940918,0.057128906,-0.10510254,22
96.343994,-15.258789,-22.750854,-0.34448242,-0.31323242,0.8413086,-0.01940918,0.057128906,-0.10510254,23
99.65515,-20.446777,2.0751953,-0.33007812,-0.3005371,0.84228516,-0.010620117,0.064819336,-0.10546875,24
100.43335,-25.939941,29.205322,-0.32080078,-0.27856445,0.85302734,-0.010620117,0.064819336,-0.10546875,25
87.677,-32.77588,44.204712,-0.3149414,-0.25341797,0.88061523,-0.010620117,0.064819336,-0.10546875,26
73.88306,-36.987305,48.27881,-0.31762695,-0.23632812,0.9057617,-0.000366211,0.075805664,-0.10510254,27
67.0166,-38.45215,36.849976,-0.32250977,-0.21582031,0.91748047,-0.000366211,0.075805664,-0.10510254,28
63.171387,-35.598755,18.28003,-0.3227539,-0.19189453,0.9260254,0.002563477,0.08129883,-0.1003418,29
58.929443,-29.159546,-0.7171631,-0.3161621,-0.1772461,0.9326172,0.002563477,0.08129883,-0.1003418,30
62.74414,-19.927979,-16.723633,-0.30395508,-0.16113281,0.94140625,0.002563477,0.08129883,-0.1003418,31
70.98389,-11.077881,-33.859253,-0.29101562,-0.14624023,0.95410156,0.009521484,0.08532715,-0.0970459,32
74.81384,-0.9765625,-51.132202,-0.2878418,-0.1484375,0.95874023,0.009521484,0.08532715,-0.0970459,33
79.28467,7.293701,-63.2782,-0.29077148,-0.1652832,0.95043945,0.012084961,0.08532715,-0.10180664,34
84.39636,12.191772,-66.61987,-0.29492188,-0.18188477,0.92700195,0.012084961,0.08532715,-0.10180664,35
82.214355,14.007568,-65.29236,-0.30444336,-0.19726562,0.90722656,0.012084961,0.08532715,-0.10180664,36
74.35608,12.252808,-64.11743,-0.32055664,-0.21411133,0.88671875,0.010253906,0.08459473,-0.09448242,37
69.83948,7.965088,-59.188843,-0.33203125,-0.2253418,0.87158203,0.010253906,0.08459473,-0.09448242,38
66.43677,0.19836426,-49.697876,-0.33496094,-0.22021484,0.861084,0.009887695,0.083862305,-0.09851074,39
62.11853,-9.399414,-36.8042,-0.3334961,-0.20800781,0.8581543,0.009887695,0.083862305,-0.09851074,40
51.26953,-24.475098,-22.018433,-0.27270508,-0.22192383,0.9135742,0.013916016,0.08862305,-0.099243164,44
47.561646,-25.787354,-18.52417,-0.2631836,-0.2512207,0.89990234,0.013916016,0.08862305,-0.099243164,45
40.161133,-31.845093,-9.765625,-0.2548828,-0.26904297,0.88842773,0.013916016,0.08862305,-0.099243164,46
35.7666,-40.81726,4.623413,-0.24926758,-0.27319336,0.89038086,0.014648438,0.087524414,-0.09301758,47
36.43799,-47.62268,30.441284,-0.24169922,-0.26049805,0.90112305,0.014648438,0.087524414,-0.09301758,48
38.742065,-49.453735,49.362183,-0.22875977,-0.2319336,0.9111328,0.014648438,0.087524414,-0.09338379,49
40.039062,-43.5791,62.39319,-0.20751953,-0.19384766,0.921875,0.017944336,0.09338379,-0.09338379,50
33.00476,-28.244019,65.03296,-0.19067383,-0.16308594,0.9367676,0.017944336,0.09338379,-0.09338379,51
29.60205,-10.726929,53.466797,-0.19433594,-0.14868164,0.92822266,0.023803711,0.099609375,-0.088256836,52
36.468506,3.8757324,32.836914,-0.22167969,-0.13989258,0.90356445,0.023803711,0.099609375,-0.088256836,53
37.017822,11.611938,14.572144,-0.24414062,-0.122802734,0.8774414,0.023803711,0.099609375,-0.088256836,54
30.456543,12.191772,1.5716553,-0.26220703,-0.095947266,0.86328125,0.023071289,0.09777832,-0.09118652,55
27.923584,11.184692,-10.025024,-0.27416992,-0.122802734,0.87768555,0.023071289,0.09777832,-0.09118652,56
35.79712,5.355835,-9.979248,-0.28149414,-0.034179688,0.9116211,0.01940918,0.09814453,-0.083862305,57
43.97583,6.362915,-0.8544922,-0.27319336,-0.003662109,0.9453125,0.01940918,0.09814453,-0.083862305,58
57.495117,6.5307617,14.984131,-0.25,0.04248047,0.9753418,0.01940918,0.09814453,-0.083862305,59
58.044434,0.9765625,35.491943,-0.21923828,0.08618164,1.0014648,0.020507812,0.10803223,-0.09301758,60
44.067383,-5.645752,65.56702,-0.18115234,0.12109375,1.0385742,0.020507812,0.10803223,-0.09301758,61
15.823364,-11.154175,93.12439,-0.1484375,0.15039062,1.0942383,0.024536133,0.111328125,-0.08605957,62
-14.129639,-12.313843,119.61365,-0.12670898,0.16992188,1.1481934,0.024536133,0.111328125,-0.08605957,63
-40.115356,-3.829956,140.24353,-0.12133789,0.18383789,1.2207031,0.024536133,0.111328125,-0.08605957,64
-41.94641,20.78247,142.74597,-0.12475586,0.18164062,1.2805176,0.020141602,0.11352539,-0.08532715,65
-33.26416,47.561646,136.76453,-0.11987305,0.17651367,1.3068848,0.020141602,0.11352539,-0.08532715,66
-26.031494,68.481445,120.407104,-0.111083984,0.1887207,1.2890625,-0.003295898,0.10217285,-0.09338379,67
-27.09961,84.365845,95.4895,-0.11767578,0.19848633,1.25,-0.003295898,0.10217285,-0.09338379,68
-37.53662,92.39197,80.03235,-0.15576172,0.19116211,1.2106934,-0.003295898,0.10217285,-0.09338379,69
-50.15564,92.13257,79.940796,-0.2055664,0.16723633,1.197998,-0.026733398,0.09082031,-0.10107422,70
-65.03296,82.611084,91.61377,-0.26831055,0.1496582,1.2131348,-0.026733398,0.09082031,-0.10107422,71
-80.97839,67.62695,107.26929,-0.31103516,0.15454102,1.2312012,-0.036254883,0.08532715,-0.10473633,72
-150.26855,36.42273,117.752075,-0.32543945,0.1730957,1.2641602,-0.036254883,0.08532715,-0.10473633,74
-175.06409,34.13391,96.05408,-0.31274414,0.18945312,1.2854004,-0.045776367,0.07800293,-0.1105957,75
-182.44934,39.07776,57.403564,-0.2998047,0.20874023,1.3208008,-0.045776367,0.07800293,-0.1105957,76
-182.9071,50.41504,13.748169,-0.27978516,0.21972656,1.3747559,-0.061157227,0.06262207,-0.115722656,77
-178.45154,57.266235,-15.609741,-0.26220703,0.22875977,1.4150391,-0.061157227,0.06262207,-0.115722656,78
-185.91309,58.95996,-32.318115,-0.24243164,0.21948242,1.4504395,-0.061157227,0.06262207,-0.115722656,79
-198.07434,51.498413,-39.45923,-0.22094727,0.19189453,1.4733887,-0.07324219,0.03479004,-0.12597656,80
-210.32715,42.404175,-35.38513,-0.2043457,0.14404297,1.4960938,-0.07324219,0.03479004,-0.12597656,81
-235.83984,43.96057,-24.337769,-0.19433594,0.10498047,1.5234375,-0.07434082,0.014282227,-0.12597656,82
-260.52856,57.617188,-30.685425,-0.19213867,0.08154297,1.5666504,-0.07434082,0.014282227,-0.12597656,83
-279.99878,75.62256,-55.892944,-0.20581055,0.08569336,1.6171875,-0.07434082,0.014282227,-0.12597656,84
-293.12134,100.28076,-95.184326,-0.23828125,0.10644531,1.6801758,-0.080200195,-0.013549805,-0.12487793,85
-297.33276,123.73352,-129.66919,-0.27441406,0.109375,1.7282715,-0.080200195,-0.013549805,-0.12487793,86
-291.77856,132.58362,-158.44727,-0.29956055,0.0859375,1.7438965,-0.09448242,-0.05419922,-0.12231445,87
-286.07178,131.68335,-176.04065,-0.29711914,0.046875,1.7475586,-0.09448242,-0.05419922,-0.12231445,88
-289.2456,124.52698,-174.94202,-0.26538086,0.015625,1.7473145,-0.09448242,-0.05419922,-0.12231445,89
-300.38452,119.9646,-163.31482,-0.22485352,-0.010253906,1.7573242,-0.11315918,-0.08166504,-0.1204834,90
-310.33325,120.162964,-141.08276,-0.19042969,-0.03540039,1.7797852,-0.11315918,-0.08166504,-0.1204834,91
-328.36914,130.58472,-114.471436,-0.1459961,-0.036132812,1.8251953,-0.119018555,-0.1105957,-0.111328125,92
-353.65295,144.34814,-88.31787,-0.107177734,-0.009277344,1.8710938,-0.119018555,-0.1105957,-0.111328125,93
-370.19348,158.3252,-68.19153,-0.08618164,0.018554688,1.8901367,-0.119018555,-0.1105957,-0.111328125,94
-377.39563,169.83032,-62.286377,-0.084472656,0.020019531,1.8723145,-0.13110352,-0.13952637,-0.10180664,95
-386.5509,175.65918,-61.75232,-0.095947266,-0.003173828,1.84375,-0.13110352,-0.13952637,-0.10180664,96
-393.75305,179.5044,-55.923462,-0.11035156,-0.034179688,1.7954102,-0.13110352,-0.13952637,-0.10180664,97
-396.39282,175.23193,-36.972046,-0.13549805,-0.07299805,1.736084,-0.14685059,-0.17102051,-0.08605957,98
-395.27893,174.9878,-9.521484,-0.15991211,-0.103027344,1.6835938,-0.14685059,-0.17102051,-0.08605957,99
-392.92908,173.20251,3.3569336,-0.12573242,-0.10668945,1.6220703,-0.1640625,-0.1977539,-0.06958008,100
-378.12805,167.08374,-0.6713867,-0.20605469,-0.09838867,1.5666504,-0.1640625,-0.1977539,-0.06958008,101
-354.79736,166.90063,-13.137817,-0.20117188,-0.06958008,1.5395508,-0.1640625,-0.1977539,-0.06958008,102
-335.14404,169.32678,-27.664185,-0.1743164,-0.008544922,1.5175781,-0.17614746,-0.21936035,-0.05090332,103
-326.11084,173.23303,-33.87451,-0.15039062,0.080322266,1.4909668,-0.17614746,-0.21936035,-0.05090332,104
-320.44983,173.84338,-22.247314,-0.13671875,0.12841797,1.4577637,-0.18603516,-0.23547363,-0.028564453,105
-330.44434,170.44067,-10.223389,-0.12060547,0.12597656,1.4072266,-0.18603516,-0.23547363,-0.028564453,106
-340.59143,161.16333,10.635376,-0.103027344,0.08129883,1.348877,-0.18603516,-0.23547363,-0.028564453,107
-353.54614,154.63257,19.805908,-0.104003906,0.038085938,1.2575684,-0.2006836,-0.25378418,-0.020874023,108
-360.65674,150.11597,35.079956,-0.12402344,-0.000488281,1.1325684,-0.2006836,-0.25378418,-0.020874023,109
-354.50745,147.38464,44.006348,-0.14575195,-0.02368164,1.0148926,-0.20507812,-0.27209473,0.008422852,110
-334.36584,142.25769,48.40088,-0.15625,-0.026855469,0.8947754,-0.20507812,-0.27209473,0.008422852,111
-302.948,126.35803,46.051025,-0.16625977,-0.021728516,0.80249023,-0.20507812,-0.27209473,0.008422852,112
-266.90674,107.97119,46.24939,-0.17260742,-0.011962891,0.71533203,-0.20800781,-0.2874756,0.021972656,113
-240.7074,84.365845,54.992676,-0.16674805,0.000732422,0.6516113,-0.20800781,-0.2874756,0.021972656,114
-222.93091,60.791016,67.5354,-0.15332031,0.010986328,0.58862305,-0.20141602,-0.29992676,0.034423828,115
-205.53589,46.463013,86.54785,-0.13500977,0.025878906,0.5324707,-0.20141602,-0.29992676,0.034423828,116
-192.32178,33.584595,95.581055,-0.11450195,0.049560547,0.4921875,-0.20141602,-0.29992676,0.034423828,117
-186.06567,29.663086,91.81213,-0.09350586,0.08544922,0.46264648,-0.19628906,-0.30395508,0.048706055,118
-185.27222,31.646729,78.73535,-0.076416016,0.12963867,0.45532227,-0.19628906,-0.30395508,0.048706055,119
-178.11584,47.1344,61.47766,-0.068359375,0.18139648,0.45092773,-0.18493652,-0.30651855,0.06335449,120
-160.61401,61.462402,38.83362,-0.068603516,0.21923828,0.4321289,-0.18493652,-0.30651855,0.06335449,121
-144.53125,75.33264,14.678955,-0.07836914,0.23901367,0.3972168,-0.18493652,-0.30651855,0.06335449,122
-127.212524,84.59473,-2.7618408,-0.092285156,0.23950195,0.35864258,-0.18200684,-0.3109131,0.079833984,123
-114.74609,86.60889,-11.917114,-0.10449219,0.2319336,0.30273438,-0.18200684,-0.3109131,0.079833984,124
-105.789185,80.47485,-26.733398,-0.11376953,0.2211914,0.23608398,-0.18969727,-0.3182373,0.09008789,125
-99.41101,72.509766,-33.26416,-0.11791992,0.20629883,0.1796875,-0.18969727,-0.3182373,0.09008789,126
-92.437744,63.12561,-36.987305,-0.119384766,0.18481445,0.18603516,-0.18969727,-0.3182373,0.09008789,127
-86.31897,51.956177,-36.77368,-0.118896484,0.15332031,0.079589844,-0.1907959,-0.31896973,0.09741211,128
-79.208374,42.007446,-34.25598,-0.1159668,0.12475586,0.038330078,-0.1907959,-0.31896973,0.09741211,129
-73.19641,31.097412,-19.363403,-0.1105957,0.099121094,-0.003662109,-0.18969727,-0.3149414,0.10144043,130
-65.17029,17.791748,-6.790161,-0.10644531,0.0703125,-0.030029297,-0.18969727,-0.3149414,0.10144043,131
-54.870605,7.827759,9.994507,-0.1027832,0.045898438,-0.05517578,-0.18969727,-0.3149414,0.10144043,132
-41.107178,3.6468506,18.997192,-0.1027832,0.026367188,-0.072021484,-0.1875,-0.30908203,0.11425781,133
-27.130127,-4.3029785,23.81897,-0.10546875,0.008789063,-0.08544922,-0.1875,-0.30908203,0.11425781,134
-10.040283,-6.1187744,24.459839,-0.10839844,-0.002197266,-0.0925293,-0.27868652,-0.3112793,0.11645508,135
11.856079,-8.544922,19.470215,-0.10864258,-0.007324219,-0.09716797,-0.18493652,-0.3112793,0.11645508,136
35.17151,-13.763428,9.429932,-0.111328125,-0.012451172,-0.099365234,-0.18493652,-0.3112793,0.11645508,137
