GX,GY,GZ,AX,AY,AZ,MX,MY,MZ,TS
-47.576904,9.70459,124.64905,-0.08862305,0.42749023,0.86206055,-0.18603516,-0.07287598,-0.13916016,186
-47.60742,15.594482,130.4779,-0.095947266,0.421875,0.8713379,-0.18603516,-0.07287598,-0.13916016,187
-44.570923,10.726929,136.13892,-0.095947266,0.40942383,0.90600586,-0.18933105,-0.07836914,-0.14099121,188
-41.625977,-1.3275146,136.0321,-0.087890625,0.38745117,0.9433594,-0.18933105,-0.07836914,-0.14099121,189
-45.12024,-21.636963,127.01416,-0.046875,0.3479004,0.9746094,-0.18933105,-0.07836914,-0.14099121,190
-41.47339,-27.999878,120.04089,-0.026123047,0.28686523,0.98535156,-0.18566895,-0.07873535,-0.1340332,191
-35.995483,-39.68811,117.126465,-0.007568359,0.2253418,0.9880371,-0.18566895,-0.07873535,-0.1340332,192
-25.787354,-40.69519,118.65234,-0.008544922,0.16625977,0.9758301,-0.18017578,-0.087890625,-0.13659668,193
-16.189575,-47.973633,121.20056,-0.015136719,0.12646484,0.9562988,-0.18017578,-0.087890625,-0.13659668,194
-10.986328,-56.80847,124.14551,-0.018554688,0.09887695,0.9421387,-0.18017578,-0.087890625,-0.13659668,195
-13.824463,-66.78772,126.068115,-0.017333984,0.052734375,0.935791,-0.1743164,-0.08642578,-0.14172363,196
-15.029907,-71.82312,132.30896,-0.024902344,0.004638672,0.921875,-0.1743164,-0.08642578,-0.14172363,197
-14.251709,-72.03674,148.84949,-0.023925781,-0.04248047,0.89624023,-0.16882324,-0.08972168,-0.13879395,198
-18.52417,-81.344604,160.61401,0.005615234,-0.09863281,0.8833008,-0.16882324,-0.08972168,-0.13879395,199
-24.017334,-93.38379,163.69629,0.040039062,-0.14672852,0.8786621,-0.16882324,-0.08972168,-0.13879395,200
-30.395508,-91.18652,163.22327,0.050048828,-0.20385742,0.89624023,-0.16040039,-0.09411621,-0.1307373,201
-31.448364,-95.4895,157.69958,0.06542969,-0.27490234,0.9272461,-0.16040039,-0.09411621,-0.1307373,202
-28.884888,-92.056274,152.78625,0.07519531,-0.3190918,0.95947266,-0.14685059,-0.091552734,-0.1303711,203
-27.282715,-91.78162,152.74048,0.10620117,-0.36523438,0.9934082,-0.14685059,-0.091552734,-0.1303711,204
-33.7677,-96.25244,156.67725,0.18530273,-0.41333008,1.034668,-0.14685059,-0.091552734,-0.1303711,205
-32.302856,-81.48193,154.37317,0.23364258,-0.45288086,1.0861816,-0.13806152,-0.09301758,-0.13220215,206
-26.70288,-75.82092,144.48547,0.26586914,-0.43969727,1.140625,-0.13806152,-0.09301758,-0.13220215,207
-20.706177,-78.65906,122.421265,0.29785156,-0.54345703,1.1809082,-0.1270752,-0.08898926,-0.12487793,208
-10.83374,-68.81714,107.52869,0.31591797,-0.5661621,1.1884766,-0.1270752,-0.08898926,-0.12487793,209
-2.090454,-52.91748,97.473145,0.32299805,-0.58496094,1.182373,-0.1270752,-0.08898926,-0.12487793,210
3.479004,-40.19165,89.85901,0.31933594,-0.5895996,1.1706543,-0.11755371,-0.08935547,-0.12670898,211
13.900757,-28.182983,86.1969,0.30151367,-0.5891113,1.1594238,-0.11755371,-0.08935547,-0.12670898,212
20.858765,-23.55957,86.77673,0.28637695,-0.5788574,1.1455078,-0.111328125,-0.09082031,-0.12634277,213
23.284912,-23.895264,89.95056,0.28930664,-0.5595703,1.1252441,-0.111328125,-0.09082031,-0.12634277,214
14.663696,-32.74536,81.329346,0.31445312,-0.54052734,1.1096191,-0.111328125,-0.09082031,-0.12634277,215
9.750366,-38.69629,72.402954,0.35668945,-0.5266113,1.1018066,-0.103637695,-0.08605957,-0.12963867,216
9.750366,-33.26416,65.826416,0.39233398,-0.49804688,1.0930176,-0.103637695,-0.08605957,-0.12963867,217
7.965088,-27.58789,46.203613,0.4206543,-0.48266602,1.1113281,-0.103637695,-0.08605957,-0.12927246,218
14.251709,-19.28711,22.583008,0.43017578,-0.48535156,1.1313477,-0.09887695,-0.080200195,-0.12927246,219
17.63916,-12.664795,4.776001,0.43310547,-0.49291992,1.1394043,-0.09887695,-0.080200195,-0.12927246,220
26.45874,-12.374878,-9.048462,0.43237305,-0.49658203,1.1369629,-0.09411621,-0.07910156,-0.12634277,221
31.555176,-19.241333,-26.59607,0.43432617,-0.48779297,1.1225586,-0.09411621,-0.07910156,-0.12634277,222
31.448364,-25.20752,-35.736084,0.4399414,-0.44189453,1.0905762,-0.09411621,-0.07910156,-0.12634277,223
28.198242,-28.640747,-45.059204,0.42285156,-0.38256836,1.0532227,-0.09375,-0.08166504,-0.13220215,224
23.986816,-20.874023,-52.444458,0.38891602,-0.30908203,1.0144043,-0.09375,-0.08166504,-0.13220215,225
21.011353,-9.048462,-58.21228,0.35058594,-0.24829102,1.0014648,-0.09301758,-0.083862305,-0.13476562,226
15.716553,-6.7749023,-66.78772,0.35009766,-0.2241211,1.0073242,-0.09301758,-0.083862305,-0.13476562,227
18.630981,-7.7819824,-78.33862,0.35205078,-0.21264648,1.0161133,-0.09301758,-0.083862305,-0.13476562,228
25.543213,-9.3688965,-90.652466,0.3503418,-0.20263672,1.0214844,-0.09411621,-0.083862305,-0.13879395,229
29.418945,-15.151978,-102.371216,0.3408203,-0.1887207,1.0175781,-0.09411621,-0.083862305,-0.13879395,230
34.88159,-23.30017,-114.42566,0.3232422,-0.14160156,1.0048828,-0.09631348,-0.087524414,-0.14355469,231
37.078857,-27.679443,-124.35913,0.28833008,-0.083740234,0.9814453,-0.09631348,-0.087524414,-0.14355469,232
35.629272,-33.859253,-130.24902,0.26708984,-0.030029297,0.9580078,-0.09631348,-0.087524414,-0.14355469,233
32.196045,-34.210205,-135.22339,0.30981445,0.048095703,0.92163086,-0.099243164,-0.08898926,-0.14758301,234
25.527954,-25.115967,-137.42065,0.22070312,0.099121094,0.88549805,-0.099243164,-0.08898926,-0.14758301,235
15.258789,-2.0751953,-147.75085,0.2006836,0.14916992,0.84594727,-0.09741211,-0.091918945,-0.1541748,237
17.044067,6.6833496,-149.30725,0.18359375,0.17138672,0.83251953,-0.09741211,-0.091918945,-0.1541748,238
13.565063,10.147095,-148.34595,0.13769531,0.19189453,0.83374023,-0.103637695,-0.092285156,-0.15270996,239
12.466431,7.9193115,-143.20374,0.07470703,0.23242188,0.84350586,-0.103637695,-0.092285156,-0.15270996,240
7.3547363,-2.1820068,-139.00757,0.024414062,0.28271484,0.8623047,-0.10656738,-0.091552734,-0.16149902,241
4.562378,-4.714966,-138.53455,-0.03881836,0.31103516,0.87402344,-0.10656738,-0.091552734,-0.16149902,242
0.9460449,4.6691895,-130.15747,-0.0690918,0.29833984,0.8874512,-0.10656738,-0.091552734,-0.16149902,243
9.353638,-0.38146973,-124.26758,-0.068359375,0.26220703,0.8959961,-0.111694336,-0.095947266,-0.16113281,244
9.643555,-9.353638,-127.27356,-0.049804688,0.25268555,0.8869629,-0.111694336,-0.095947266,-0.16113281,245
3.6621094,-11.505127,-134.27734,-0.022949219,0.25952148,0.8701172,-0.114990234,-0.09301758,-0.16369629,246
0.8544922,-2.5787354,-138.1836,-0.001464844,0.2590332,0.8547363,-0.114990234,-0.09301758,-0.16369629,247
-0.38146973,14.862061,-136.48987,-0.001953125,0.26464844,0.84228516,-0.114990234,-0.09301758,-0.16369629,248
1.2512207,22.93396,-134.44519,-0.03125,0.2866211,0.8486328,-0.119384766,-0.10070801,-0.16882324,249
0.015258789,24.459839,-129.02832,-0.08178711,0.32006836,0.85375977,-0.119384766,-0.10070801,-0.16882324,250
0.7019043,21.881104,-112.06055,-0.12988281,0.35473633,0.8625488,-0.1270752,-0.103271484,-0.16516113,251
-3.2653809,19.622803,-92.11731,-0.17626953,0.40454102,0.86743164,-0.1270752,-0.103271484,-0.16516113,252
-9.841919,17.51709,-76.27869,-0.22973633,0.4338379,0.87109375,-0.1270752,-0.103271484,-0.16516113,253
-11.062622,15.945435,-63.858032,-0.2746582,0.45532227,0.8852539,-0.13659668,-0.103637695,-0.16296387,254
-5.4626465,20.751953,-51.92566,-0.3095703,0.44335938,0.91503906,-0.13659668,-0.103637695,-0.16296387,255
0.24414062,11.352539,-42.72461,-0.3227539,0.41308594,0.94262695,-0.14575195,-0.10839844,-0.15930176,0
11.154175,4.119873,-20.78247,-0.3618164,0.3774414,0.9157715,-0.14575195,-0.10839844,-0.15930176,2
9.521484,7.4005127,-7.1258545,-0.38720703,0.38208008,0.8845215,-0.14575195,-0.10876465,-0.1574707,3
4.196167,7.385254,6.378174,-0.40625,0.38720703,0.85839844,-0.14575195,-0.10876465,-0.1574707,4
-3.3874512,5.340576,24.276733,-0.4165039,0.37963867,0.8400879,-0.14794922,-0.10913086,-0.15234375,5
-8.483887,2.2125244,39.535522,-0.40576172,0.3544922,0.8400879,-0.14794922,-0.10913086,-0.15234375,6
-15.457153,-9.109497,47.470093,-0.37109375,0.31347656,0.85668945,-0.14794922,-0.10913086,-0.15234375,7
-21.316528,-17.410278,52.81067,-0.33398438,0.27246094,0.8774414,-0.14501953,-0.10839844,-0.15161133,8
-24.246216,-20.812988,57.907104,-0.29956055,0.2163086,0.8991699,-0.14501953,-0.10839844,-0.15161133,9
-27.96936,-24.230957,59.32617,-0.25268555,0.16772461,0.92089844,-0.14501953,-0.10839844,-0.15161133,10
-28.686523,-26.290894,61.065674,-0.20874023,0.11621094,0.9343262,-0.14318848,-0.106933594,-0.14794922,11
-28.244019,-22.216797,59.555054,-0.15991211,0.083984375,0.9404297,-0.14318848,-0.106933594,-0.14794922,12
-39.67285,-12.023926,38.482666,-0.02319336,-0.03173828,0.9633789,-0.13806152,-0.111328125,-0.14025879,14
-36.91101,10.848999,23.468018,0.0234375,-0.10107422,0.9543457,-0.13806152,-0.111328125,-0.14025879,15
-32.0282,32.440186,15.686035,0.040771484,-0.14770508,0.94750977,-0.1340332,-0.110961914,-0.13476562,16
-35.14099,49.40796,4.7302246,0.05078125,-0.17944336,0.9470215,-0.1340332,-0.110961914,-0.13476562,17
-36.727905,55.145264,-6.8206787,0.045166016,-0.21069336,0.95214844,-0.1373291,-0.115722656,-0.12890625,18
-39.016724,52.29187,-11.764526,0.033691406,-0.24145508,0.9604492,-0.1373291,-0.115722656,-0.12890625,19
-40.420532,41.5802,-16.479492,0.020751953,-0.26342773,0.96972656,-0.1373291,-0.115722656,-0.12890625,20
-46.554565,31.295776,-25.360107,0.028076172,-0.26879883,0.97387695,-0.13769531,-0.119384766,-0.13146973,21
-60.5011,39.138794,-42.114258,0.028808594,-0.25830078,0.97314453,-0.13769531,-0.119384766,-0.13146973,22
-62.77466,43.97583,-42.160034,0.037109375,-0.28271484,0.9719238,-0.14099121,-0.11791992,-0.12780762,23
-62.576294,43.35022,-48.294067,0.041015625,-0.29833984,0.98999023,-0.14099121,-0.11791992,-0.12780762,24
-61.340332,54.96216,-59.08203,0.03466797,-0.3125,1.0124512,-0.14099121,-0.11791992,-0.12780762,25
-54.80957,60.60791,-65.55176,0.033935547,-0.31469727,1.0427246,-0.14245605,-0.123413086,-0.12451172,26
-14.9383545,47.729492,-51.17798,0.006347656,-0.2788086,1.1193848,-0.14245605,-0.123413086,-0.12451172,27
-14.73999,60.333252,-60.97412,-0.033691406,-0.33129883,1.1486816,-0.15124512,-0.13000488,-0.1171875,28
-17.913818,58.929443,-72.75391,-0.026123047,-0.33569336,1.1914062,-0.15124512,-0.13000488,-0.1171875,29
-24.398804,51.208496,-75.408936,-0.05444336,-0.34716797,1.1970215,-0.15124512,-0.13000488,-0.1171875,30
7.6904297,66.65039,-96.328735,-0.032714844,-0.34228516,1.1887207,-0.15124512,-0.12927246,-0.11791992,31
31.12793,51.01013,-115.17334,-0.017822266,-0.3371582,1.1816406,-0.15124512,-0.12927246,-0.11791992,32
25.817871,58.57849,-101.01318,-0.09472656,-0.20507812,1.0871582,-0.15930176,-0.1303711,-0.12011719,35
19.638062,71.640015,-105.74341,-0.12109375,-0.15039062,1.079834,-0.16625977,-0.12927246,-0.12011719,36
16.738892,79.84924,-93.90259,-0.14526367,-0.10864258,1.0874023,-0.16625977,-0.12927246,-0.12011719,37
29.678345,96.48132,-76.00403,-0.17895508,-0.07495117,1.1181641,-0.17944336,-0.13476562,-0.122680664,38
38.085938,88.92822,-60.85205,-0.24584961,-0.08129883,1.1506348,-0.17944336,-0.13476562,-0.122680664,39
27.954102,75.68359,-49.301147,-0.30126953,-0.068847656,1.175293,-0.17944336,-0.13476562,-0.122680664,40
37.216187,86.59363,-47.74475,-0.30639648,-0.068603516,1.1716309,-0.18457031,-0.12854004,-0.12011719,41
54.489136,-16.220093,-37.887573,-0.3005371,-0.15698242,1.1311035,-0.19299316,-0.1303711,-0.12670898,44
57.052612,-34.75952,-31.326294,-0.2939453,-0.17041016,1.0830078,-0.19299316,-0.1303711,-0.12670898,45
56.45752,-54.779053,-32.77588,-0.2705078,-0.18115234,1.0380859,-0.19152832,-0.12817383,-0.12597656,46
47.77527,-70.72449,-36.117554,-0.24316406,-0.17285156,0.9836426,-0.19152832,-0.12817383,-0.12597656,47
42.58728,-72.70813,-34.561157,-0.21655273,-0.140625,0.9333496,-0.19152832,-0.12011719,-0.1274414,48
40.161133,-59.936523,-28.060913,-0.1977539,-0.111083984,0.89624023,-0.18859863,-0.12011719,-0.1274414,49
39.44397,-33.706665,-18.814087,-0.20092773,-0.0769043,0.87231445,-0.18859863,-0.12011719,-0.1274414,50
36.66687,-9.44519,-13.717651,-0.2121582,-0.029785156,0.8676758,-0.18200684,-0.11645508,-0.13146973,51
38.742065,-4.501343,-7.797241,-0.24926758,-0.004150391,0.88378906,-0.18200684,-0.11645508,-0.13146973,52
35.064697,17.181396,11.154175,-0.29956055,0.020996094,0.91625977,-0.18164062,-0.11462402,-0.13000488,53
34.27124,32.76062,12.283325,-0.32910156,0.03540039,0.93408203,-0.18164062,-0.11462402,-0.13000488,54
39.29138,30.181885,12.039185,-0.32177734,0.028076172,0.9621582,-0.18164062,-0.11462402,-0.13000488,55
36.727905,-4.2419434,16.159058,-0.33496094,0.020996094,0.98657227,-0.18969727,-0.11279297,-0.13146973,56
32.455444,-32.699585,26.855469,-0.37451172,0.028808594,0.99560547,-0.18969727,-0.11279297,-0.13146973,57
30.960083,-50.933838,35.67505,-0.40844727,0.044677734,0.99194336,-0.18969727,-0.11279297,-0.13146973,58
34.072876,-63.064575,40.34424,-0.41674805,0.0637207,0.9746094,-0.18566895,-0.10876465,-0.13110352,59
33.233643,-72.67761,44.052124,-0.3955078,0.06738281,0.9477539,-0.18566895,-0.10876465,-0.13110352,60
25.6958,-78.47595,50.90332,-0.36987305,0.057617188,0.91796875,-0.18310547,-0.10620117,-0.12854004,61
29.754639,-75.790405,60.562134,-0.3491211,0.041992188,0.8911133,-0.18310547,-0.10620117,-0.12854004,62
30.88379,-69.51904,65.06348,-0.328125,0.02734375,0.8684082,-0.18310547,-0.10620117,-0.12854004,63
26.626587,-71.77734,58.944702,-0.29223633,0.017578125,0.8508301,-0.17468262,-0.10437012,-0.13146973,64
19.088745,-80.703735,50.76599,-0.26220703,0.006347656,0.8317871,-0.17468262,-0.10437012,-0.13146973,65
16.098022,-82.65686,44.37256,-0.19702148,-0.067871094,0.8076172,-0.16845703,-0.10217285,-0.1303711,68
20.324707,-81.9397,40.008545,-0.18286133,-0.09350586,0.81103516,-0.16333008,-0.10107422,-0.13256836,69
19.546509,-80.99365,37.231445,-0.17163086,-0.11743164,0.8132324,-0.16333008,-0.10107422,-0.13256836,70
19.241333,-79.0863,41.56494,-0.1628418,-0.13745117,0.8105469,-0.15637207,-0.09667969,-0.1307373,71
19.02771,-82.55005,44.6167,-0.15307617,-0.15551758,0.80200195,-0.15637207,-0.09667969,-0.1307373,72
15.823364,-84.25903,44.067383,-0.14526367,-0.17407227,0.7956543,-0.15637207,-0.09667969,-0.1307373,73
4.272461,-76.58386,31.38733,-0.1352539,-0.17089844,0.79174805,-0.15234375,-0.095947266,-0.13476562,74
-12.008667,-64.51416,28.030396,-0.11279297,-0.1875,0.78125,-0.15234375,-0.095947266,-0.13476562,75
-11.520386,-63.76648,20.050049,-0.0859375,-0.19873047,0.77612305,-0.14575195,-0.095581055,-0.12963867,76
-12.329102,-54.29077,9.597778,-0.06298828,-0.19165039,0.7751465,-0.14575195,-0.095581055,-0.12963867,77
-16.967773,-48.431396,0.9918213,-0.049072266,-0.18017578,0.7739258,-0.14575195,-0.095581055,-0.12963867,78
-24.749756,-36.987305,8.81958,-0.051757812,-0.17773438,0.77490234,-0.14428711,-0.09375,-0.13366699,79
-69.29016,56.274414,28.4729,-0.09643555,-0.07861328,0.8483887,-0.14355469,-0.095581055,-0.1340332,83
-59.84497,66.467285,34.40857,-0.11010742,-0.06542969,0.8798828,-0.14208984,-0.099609375,-0.13476562,84
-54.67224,63.430786,30.273438,-0.118652344,-0.055664062,0.91430664,-0.14208984,-0.099609375,-0.13476562,85
-44.387817,58.807373,38.742065,-0.14282227,-0.045654297,0.94433594,-0.1508789,-0.103271484,-0.14172363,86
-37.68921,51.77307,44.509888,-0.16577148,-0.037841797,0.96899414,-0.1508789,-0.103271484,-0.14172363,87
-34.88159,31.082153,35.232544,-0.15405273,-0.03466797,0.9890137,-0.1508789,-0.103271484,-0.14172363,88
-43.762207,13.717651,22.125244,-0.12670898,-0.041748047,1.0004883,-0.15600586,-0.10620117,-0.1439209,89
-49.14856,5.050659,14.73999,-0.1003418,-0.050048828,0.99658203,-0.15600586,-0.10620117,-0.1439209,90
-40.649414,0.16784668,-9.185791,-0.061523438,-0.029052734,0.94384766,-0.15783691,-0.10839844,-0.14355469,92
-34.957886,6.591797,-19.348145,-0.041992188,-0.018066406,0.921875,-0.15783691,-0.10839844,-0.14355469,93
-23.666382,12.22229,-20.309448,-0.018310547,-0.013916016,0.9050293,-0.1640625,-0.10546875,-0.14685059,94
-0.8544922,28.808594,-15.50293,-0.020996094,-0.010009766,0.9182129,-0.1640625,-0.10546875,-0.14685059,95
66.223145,21.560669,6.866455,-0.013427734,0.003662109,0.9802246,-0.1640625,-0.104003906,-0.15527344,96
108.4137,96.29822,27.053833,-0.08129883,-0.064941406,0.96777344,-0.16772461,-0.104003906,-0.15527344,97
92.544556,118.28613,38.650513,0.013671875,-0.060058594,1.0109863,-0.16772461,-0.104003906,-0.15527344,98
16.63208,56.121826,-4.776001,-0.061523438,0.071777344,0.9494629,-0.18457031,-0.0970459,-0.16772461,101
24.429321,61.9812,-3.7841797,-0.045898438,0.09008789,0.93359375,-0.19152832,-0.0970459,-0.16772461,102
42.95349,58.71582,-5.7373047,-0.026855469,0.095214844,0.9238281,-0.19152832,-0.0970459,-0.16772461,103
52.597046,62.7594,-1.3275146,-0.029541016,0.11352539,0.95751953,-0.19995117,-0.09338379,-0.17468262,104
42.96875,91.73584,17.059326,-0.045410156,0.09741211,0.98535156,-0.19995117,-0.09338379,-0.17468262,105
55.69458,92.60559,37.582397,-0.024169922,0.06689453,1.0124512,-0.19995117,-0.09338379,-0.17468262,106
31.49414,71.7926,45.211792,-0.021972656,0.061035156,1.0522461,-0.21496582,-0.091552734,-0.17944336,107
35.67505,58.395386,32.592773,-0.009521484,0.072021484,1.0500488,-0.21496582,-0.091552734,-0.17944336,108
39.367676,43.823242,23.956299,0.036621094,0.063964844,1.0463867,-0.22521973,-0.08569336,-0.18823242,109
28.060913,35.751343,14.846802,0.07299805,0.047607422,1.0375977,-0.22521973,-0.08569336,-0.18823242,110
28.549194,39.138794,11.688232,0.09887695,0.030761719,1.0158691,-0.22521973,-0.08569336,-0.18823242,111
32.699585,41.397095,10.696411,0.064453125,0.012695313,1.0004883,-0.22961426,-0.08166504,-0.19335938,112
30.578613,44.49463,17.089844,0.15429688,0.004638672,0.9797363,-0.22961426,-0.08166504,-0.19335938,113
8.743286,79.80347,31.021118,0.15283203,0.025390625,0.9309082,-0.23950195,-0.08129883,-0.19885254,116
-0.8392334,91.36963,29.785156,0.13500977,0.03540039,0.9116211,-0.25524902,-0.080200195,-0.19885254,117
-0.88500977,106.10962,29.98352,0.119140625,0.03955078,0.89282227,-0.25524902,-0.080200195,-0.19885254,118
-5.8288574,117.111206,33.63037,0.107910156,0.032226562,0.88305664,-0.26843262,-0.080200195,-0.20361328,119
-13.977051,122.75696,36.05652,0.088134766,0.02368164,0.8859863,-0.26843262,-0.080200195,-0.20361328,120
-16.159058,117.996216,33.63037,0.075927734,0.03149414,0.8864746,-0.26843262,-0.080200195,-0.20361328,121
-10.269165,142.65442,36.04126,0.07104492,0.039794922,0.93481445,-0.28601074,-0.08239746,-0.1977539,122
25.650024,87.53967,46.89026,0.08642578,-0.03149414,1.0742188,-0.31311035,-0.08605957,-0.19445801,125
33.859253,94.573975,55.603027,0.08618164,-0.04663086,1.1152344,-0.31311035,-0.08605957,-0.19445801,126
-9.780884,97.351074,32.11975,0.12524414,0.038085938,1.0661621,-0.33398438,-0.08862305,-0.18530273,127
17.913818,91.62903,31.89087,0.16040039,-0.038330078,1.0563965,-0.33398438,-0.08862305,-0.18530273,128
60.287476,54.016113,57.69348,0.15625,-0.06591797,1.0419922,-0.34643555,-0.09082031,-0.18310547,129
28.579712,23.788452,62.026978,0.12988281,-0.020996094,1.0192871,-0.34643555,-0.09082031,-0.18310547,130
28.366089,13.22937,32.37915,0.15893555,-0.01928711,0.9650879,-0.34643555,-0.09082031,-0.18310547,131
15.899658,5.142212,41.70227,0.19018555,-0.03149414,0.95336914,-0.3519287,-0.09082031,-0.18566895,132
6.500244,-49.102783,6.5307617,0.2614746,-0.12011719,1.0480957,-0.35412598,-0.0904541,-0.18457031,134
17.929077,-69.44275,3.5705566,0.2487793,-0.19140625,1.1350098,-0.35412598,-0.0904541,-0.18457031,135
48.706055,-10.4522705,1.5869141,0.21386719,-0.15795898,1.0427246,-0.35412598,-0.0904541,-0.18457031,136
46.783447,-14.9383545,-6.42395,0.1928711,-0.15112305,0.99365234,-0.34973145,-0.08972168,-0.18530273,137
36.8042,-36.92627,-11.291504,0.21459961,-0.10473633,1.0131836,-0.34973145,-0.08972168,-0.18530273,138
6.576538,-44.662476,-15.396118,0.2043457,-0.0859375,0.95996094,-0.34973145,-0.08935547,-0.1809082,139
9.353638,-35.14099,-16.983032,0.17114258,-0.11303711,0.96484375,-0.3482666,-0.08935547,-0.1809082,140
6.378174,-37.902832,-18.356323,0.13549805,-0.13598633,0.9494629,-0.3482666,-0.08935547,-0.1809082,141
1.953125,-35.369873,-18.692017,0.111328125,-0.16552734,0.94873047,-0.34570312,-0.0871582,-0.18676758,142
-6.6375732,-41.305542,-14.511108,0.10473633,-0.1796875,0.9345703,-0.34570312,-0.0871582,-0.18676758,143
1.9683838,-49.804688,-12.069702,0.10180664,-0.16992188,0.93188477,-0.34570312,-0.0871582,-0.18676758,144
3.0975342,-53.253174,-9.963989,0.095458984,-0.1459961,0.9445801,-0.33947754,-0.08605957,-0.18676758,145
7.2784424,-33.432007,-8.300781,0.08911133,-0.12890625,0.96875,-0.33947754,-0.08605957,-0.18676758,146
4.058838,-13.076782,-8.102417,0.08642578,-0.12011719,0.9753418,-0.33654785,-0.08605957,-0.18786621,147
4.470825,-7.6446533,-3.4942627,0.08862305,-0.11743164,0.96655273,-0.33654785,-0.08605957,-0.18786621,148
3.0822754,-9.338379,-1.083374,0.09008789,-0.115722656,0.954834,-0.33654785,-0.08312988,-0.18713379,149
4.5166016,-9.170532,-0.30517578,0.08911133,-0.11352539,0.95288086,-0.33654785,-0.08312988,-0.18713379,150
0,-6.1950684,0.47302246,0.08886719,-0.111572266,0.9538574,-0.33654785,-0.08312988,-0.18713379,151
3.2196045,-3.0517578,0.5493164,0.088134766,-0.10986328,0.95336914,-0.3347168,-0.088256836,-0.1907959,152
3.112793,-2.243042,1.6784668,0.08862305,-0.10986328,0.951416,-0.3347168,-0.088256836,-0.1907959,153
4.0130615,-4.699707,2.0751953,0.08911133,-0.109375,0.94750977,-0.3347168,-0.08532715,-0.18823242,155
2.9907227,-4.623413,2.2125244,0.08911133,-0.1081543,0.9477539,-0.3347168,-0.08532715,-0.18823242,156
3.5705566,-3.753662,2.8839111,0.087402344,-0.10888672,0.94970703,-0.3343506,-0.08496094,-0.18896484,157
3.7841797,-2.319336,2.670288,0.0871582,-0.1081543,0.9511719,-0.3343506,-0.08496094,-0.18896484,158
3.6468506,-1.9989014,2.6550293,0.087646484,-0.107177734,0.9494629,-0.3343506,-0.08496094,-0.18896484,159
2.8076172,-3.3874512,2.243042,0.087890625,-0.107177734,0.9482422,-0.33398438,-0.083496094,-0.1875,160
3.9672852,-4.562378,1.6479492,0.0871582,-0.107177734,0.94750977,-0.33398438,-0.083496094,-0.1875,161
3.616333,-5.508423,2.4871826,0.08618164,-0.107666016,0.9470215,-0.33544922,-0.08496094,-0.18566895,162
3.5247803,-4.989624,2.5177002,0.08544922,-0.1081543,0.9484863,-0.33544922,-0.08496094,-0.18566895,163
3.7231445,-3.8452148,2.243042,0.0847168,-0.107421875,0.94921875,-0.33544922,-0.08496094,-0.18566895,164
4.196167,-4.1503906,2.609253,0.0847168,-0.107421875,0.9489746,-0.33288574,-0.084228516,-0.1875,165
3.6468506,-4.211426,2.4261475,0.084228516,-0.107421875,0.9489746,-0.33288574,-0.084228516,-0.1875,166
3.8604736,-4.3029785,2.0599365,0.083496094,-0.107177734,0.9489746,-0.3314209,-0.084228516,-0.18383789,167
3.8757324,-4.6539307,2.89917,0.08276367,-0.10839844,0.9484863,-0.3314209,-0.084228516,-0.18383789,168
3.9367676,-4.3945312,3.0975342,0.08203125,-0.10839844,0.9489746,-0.3314209,-0.084228516,-0.18383789,169
4.196167,-3.692627,2.319336,0.08154297,-0.107421875,0.9494629,-0.33068848,-0.083862305,-0.18566895,170
4.0893555,-3.5095215,2.2735596,0.08178711,-0.107910156,0.9484863,-0.33068848,-0.083862305,-0.18566895,171
3.540039,-4.0283203,2.2125244,0.08154297,-0.10839844,0.9482422,-0.32885742,-0.08496094,-0.18676758,172
4.0283203,-3.6621094,2.9449463,0.08081055,-0.10839844,0.9494629,-0.32885742,-0.08496094,-0.18676758,173
3.479004,-2.1972656,3.3416748,0.079833984,-0.10839844,0.9501953,-0.32885742,-0.08496094,-0.18676758,174
3.6315918,-1.5716553,3.5858154,0.0793457,-0.1081543,0.9506836,-0.32885742,-0.083496094,-0.18786621,176
3.7841797,-1.876831,3.1585693,0.079833984,-0.107910156,0.95043945,-0.328125,-0.08605957,-0.18493652,177
3.7841797,-1.739502,2.9449463,0.079833984,-0.107666016,0.9494629,-0.328125,-0.08605957,-0.18493652,178
3.7231445,-2.2735596,3.40271,0.079833984,-0.107421875,0.94873047,-0.328125,-0.08605957,-0.18493652,179
3.9672852,-3.0670166,2.8839111,0.079589844,-0.107421875,0.9489746,-0.33251953,-0.08459473,-0.18603516,180
4.3945312,-2.960205,3.2653809,0.07861328,-0.107666016,0.94873047,-0.33251953,-0.08459473,-0.18603516,181
3.6621094,-2.105713,3.2043457,0.07861328,-0.1081543,0.94921875,-0.33251953,-0.08642578,-0.18457031,182
3.9672852,-2.3345947,2.8533936,0.078125,-0.107910156,0.9494629,-0.33251953,-0.08642578,-0.18457031,183
3.8452148,-2.2277832,3.0975342,0.0769043,-0.107666016,0.94921875,-0.33215332,-0.08642578,-0.1842041,185
3.8604736,-2.9449463,3.1280518,0.07739258,-0.107666016,0.94873047,-0.33215332,-0.08642578,-0.1842041,186
3.2806396,-3.6621094,3.2653809,0.07739258,-0.10839844,0.94970703,-0.33215332,-0.08569336,-0.18493652,187
4.5776367,-1.953125,3.8604736,0.075683594,-0.1081543,0.9494629,-0.32995605,-0.08569336,-0.18493652,188
3.9978027,-1.7700195,2.6397705,0.075927734,-0.107177734,0.94970703,-0.32995605,-0.08569336,-0.18493652,189
3.3416748,-2.7923584,2.4108887,0.075927734,-0.107421875,0.9482422,-0.33068848,-0.08642578,-0.18493652,190
3.6010742,-4.2419434,1.9073486,0.076416016,-0.107666016,0.9489746,-0.33068848,-0.08642578,-0.18493652,191
3.3111572,-4.211426,3.1433105,0.076171875,-0.10913086,0.9501953,-0.33068848,-0.08642578,-0.18273926,192
3.1738281,-2.2888184,2.5939941,0.07421875,-0.10888672,0.95166016,-0.3310547,-0.08496094,-0.18273926,193
3.7231445,-1.449585,3.0822754,0.07421875,-0.107177734,0.9506836,-0.3310547,-0.08496094,-0.18273926,194
3.9520264,-2.7160645,3.3111572,0.07397461,-0.107666016,0.94873047,-0.3277588,-0.084228516,-0.18786621,195
3.4484863,-3.2043457,2.8839111,0.07421875,-0.107666016,0.9489746,-0.3277588,-0.084228516,-0.18786621,196
3.829956,-3.1738281,2.7008057,0.07324219,-0.10839844,0.94921875,-0.3277588,-0.08569336,-0.18200684,197
4.425049,-2.3345947,3.2653809,0.072753906,-0.10864258,0.95092773,-0.328125,-0.08569336,-0.18200684,198
3.9520264,-2.2277832,3.2348633,0.072753906,-0.10839844,0.9511719,-0.328125,-0.08569336,-0.18200684,199
3.753662,-1.6784668,3.0822754,0.072509766,-0.107910156,0.9511719,-0.328125,-0.084228516,-0.18493652,200
4.1503906,-1.5716553,3.0822754,0.071777344,-0.107666016,0.94970703,-0.328125,-0.084228516,-0.18493652,201
4.119873,-2.6245117,3.6315918,0.071777344,-0.107666016,0.94873047,-0.328125,-0.084228516,-0.18493652,202
3.7231445,-2.8381348,2.8533936,0.0715332,-0.1081543,0.94970703,-0.33068848,-0.080566406,-0.18493652,203
4.3792725,-1.7089844,3.0670166,0.07104492,-0.1081543,0.9501953,-0.33068848,-0.080566406,-0.18493652,204
3.0975342,-2.1972656,2.9144287,0.07104492,-0.109375,0.94970703,-0.3310547,-0.08239746,-0.18786621,205
4.1656494,-2.4871826,3.326416,0.07080078,-0.10913086,0.9501953,-0.3310547,-0.08239746,-0.18786621,206
4.3640137,-2.3498535,3.692627,0.07104492,-0.10839844,0.95092773,-0.3310547,-0.08239746,-0.18786621,207
4.0130615,-1.6174316,3.6010742,0.06982422,-0.1081543,0.9499512,-0.3314209,-0.08166504,-0.18786621,208
3.7841797,-2.1820068,3.7841797,0.0703125,-0.10888672,0.94970703,-0.3314209,-0.08166504,-0.18786621,209
3.7841797,-2.6245117,3.6621094,0.06982422,-0.10888672,0.9501953,-0.33398438,-0.083496094,-0.18530273,210
4.0740967,-1.7700195,3.4942627,0.0690918,-0.10888672,0.9506836,-0.33398438,-0.083496094,-0.18530273,211
4.135132,-1.3580322,3.4484863,0.0690918,-0.10864258,0.9499512,-0.33398438,-0.083496094,-0.18530273,212
4.257202,-1.6479492,3.6468506,0.0690918,-0.10839844,0.9501953,-0.33361816,-0.083496094,-0.18457031,213
0.076293945,-2.380371,3.1280518,0.06933594,-0.1081543,0.95043945,-0.33361816,-0.083496094,-0.18457031,214
4.1656494,-1.6784668,3.189087,0.068847656,-0.10864258,0.9501953,-0.33068848,-0.08166504,-0.18603516,215
3.9520264,-1.6479492,3.6468506,0.068847656,-0.10864258,0.9501953,-0.33068848,-0.08166504,-0.18603516,216
4.0893555,-2.1209717,3.1738281,0.06762695,-0.107910156,0.9501953,-0.32922363,-0.084228516,-0.18676758,218
3.8146973,-1.6174316,3.5858154,0.06689453,-0.10864258,0.9501953,-0.32922363,-0.084228516,-0.18676758,219
3.8909912,-1.9378662,3.2806396,0.06713867,-0.10888672,0.95043945,-0.33032227,-0.07800293,-0.18896484,220
4.0893555,-1.6937256,2.6397705,0.06738281,-0.10839844,0.95092773,-0.33032227,-0.07800293,-0.18896484,221
3.6468506,-1.0986328,3.3416748,0.06713867,-0.10839844,0.9501953,-0.33032227,-0.07800293,-0.18896484,222
3.6315918,-1.7700195,3.3569336,0.06616211,-0.10888672,0.94970703,-0.33361816,-0.08239746,-0.18383789,223
4.1503906,-2.380371,4.0283203,0.06640625,-0.10913086,0.95043945,-0.33361816,-0.08239746,-0.18383789,224
3.5552979,-1.6326904,3.1280518,0.06591797,-0.10864258,0.95043945,-0.3284912,-0.08312988,-0.18347168,225
3.40271,-1.0681152,2.9144287,0.06567383,-0.107910156,0.9506836,-0.3284912,-0.08312988,-0.18347168,226
4.1046143,-1.8005371,3.4179688,0.06542969,-0.10888672,0.9494629,-0.3284912,-0.08312988,-0.18347168,227
4.0283203,-2.3651123,3.5247803,0.064941406,-0.10913086,0.95092773,-0.32995605,-0.083496094,-0.18457031,228
4.1656494,-2.029419,3.2043457,0.06518555,-0.10864258,0.951416,-0.32995605,-0.083496094,-0.18457031,229
3.4179688,-1.0375977,3.0212402,0.06518555,-0.1081543,0.951416,-0.32885742,-0.08093262,-0.18457031,230
3.7384033,-1.5106201,3.189087,0.064208984,-0.10888672,0.95092773,-0.3317871,-0.08312988,-0.1875,233
4.0130615,-1.6784668,3.9520264,0.063964844,-0.10864258,0.9511719,-0.3317871,-0.08312988,-0.1875,234
7.7819824,-2.2583008,3.768921,0.063964844,-0.10888672,0.951416,-0.3317871,-0.08312988,-0.18859863,235
3.540039,-1.2512207,3.6468506,0.06347656,-0.10913086,0.9519043,-0.33068848,-0.07763672,-0.18859863,236
4.3945312,-0.76293945,3.6468506,0.06323242,-0.10864258,0.95043945,-0.33068848,-0.07763672,-0.18859863,237
3.4179688,-1.9378662,3.2806396,0.063964844,-0.10864258,0.9494629,-0.32922363,-0.083862305,-0.18859863,238
3.4179688,-1.7852783,3.616333,0.06347656,-0.10913086,0.9506836,-0.32922363,-0.083862305,-0.18859863,239
3.7231445,-0.90026855,3.4484863,0.06274414,-0.10888672,0.951416,-0.32922363,-0.083862305,-0.18859863,240
3.6468506,-0.9918213,3.4332275,0.06274414,-0.10888672,0.9501953,-0.33032227,-0.08312988,-0.18896484,241
3.616333,-1.7547607,3.326416,0.06298828,-0.10913086,0.94970703,-0.33032227,-0.08312988,-0.18896484,242
3.8757324,-1.3122559,3.540039,0.06274414,-0.10888672,0.95092773,-0.32958984,-0.08276367,-0.18603516,243
3.768921,-0.93078613,3.540039,0.06225586,-0.10888672,0.95092773,-0.32958984,-0.08276367,-0.18603516,244
0.12207031,-1.7089844,3.692627,0.061767578,-0.10913086,0.9501953,-0.32958984,-0.08276367,-0.18603516,245
4.5776367,-2.1820068,4.1046143,0.061279297,-0.109375,0.95092773,-0.32958984,-0.08239746,-0.19152832,246
4.119873,-0.9918213,3.9367676,0.060791016,-0.10961914,0.9519043,-0.32958984,-0.08239746,-0.19152832,247
4.272461,-1.2207031,7.6904297,0.061035156,-0.109375,0.95043945,-0.33032227,-0.08166504,-0.1875,248
3.6773682,-1.5716553,3.112793,0.061279297,-0.10888672,0.95043945,-0.33032227,-0.08166504,-0.1875,249
3.540039,-1.0375977,3.8146973,0.060546875,-0.10913086,0.9511719,-0.33032227,-0.08166504,-0.1875,250
4.119873,-1.083374,3.7841797,0.060546875,-0.10839844,0.9511719,-0.33032227,-0.080566406,-0.18347168,251
3.5247803,-1.3275146,3.6010742,0.060546875,-0.10888672,0.9501953,-0.33032227,-0.080566406,-0.18347168,252
3.7231445,-1.2512207,3.112793,0.060546875,-0.10864258,0.9511719,-0.3284912,-0.08203125,-0.18603516,253
3.6621094,-1.0681152,3.616333,0.060058594,-0.10864258,0.951416,-0.3284912,-0.08203125,-0.18603516,254
3.7994385,-1.0986328,4.0283203,0.059326172,-0.10913086,0.9506836,-0.3284912,-0.08203125,-0.18603516,255
3.5858154,-1.4648438,2.9296875,0.060058594,-0.10864258,0.9511719,-0.3277588,-0.08239746,-0.18603516,0
4.196167,-1.3427734,3.2958984,0.059570312,-0.10864258,0.951416,-0.3277588,-0.08239746,-0.18603516,1
4.043579,-1.4801025,3.479004,0.05883789,-0.10888672,0.9519043,-0.32922363,-0.07910156,-0.18566895,2
3.7078857,-1.0070801,3.40271,0.05883789,-0.109375,0.951416,-0.32922363,-0.07910156,-0.18566895,3
4.135132,-1.5106201,3.7078857,0.05908203,-0.109375,0.951416,-0.32922363,-0.07910156,-0.18566895,4
4.2266846,-1.1291504,3.7841797,0.05908203,-0.10888672,0.95214844,-0.3310547,-0.08312988,-0.18933105,5
3.829956,-0.93078613,3.6621094,0.05810547,-0.109375,0.95166016,-0.3310547,-0.08312988,-0.18933105,6
3.7078857,-1.2207031,3.3416748,0.05859375,-0.10913086,0.95166016,-0.3277588,-0.08166504,-0.18823242,7
4.0283203,-1.3122559,3.4484863,0.05810547,-0.10888672,0.95166016,-0.3277588,-0.08166504,-0.18823242,8
3.5247803,-1.2664795,3.692627,0.057617188,-0.109375,0.95166016,-0.3277588,-0.08166504,-0.18823242,9
4.1503906,-1.2817383,3.6621094,0.05834961,-0.109375,0.95166016,-0.32958984,-0.07910156,-0.18603516,10
4.180908,-1.2664795,0.24414062,0.05834961,-0.109375,0.95166016,-0.32958984,-0.07910156,-0.18603516,11
3.9978027,-1.0375977,3.8146973,0.057617188,-0.109375,0.9519043,-0.3317871,-0.08276367,-0.18933105,12
3.7841797,-0.9765625,3.540039,0.057373047,-0.10961914,0.95092773,-0.3317871,-0.08276367,-0.18933105,13
4.257202,-1.0986328,3.6010742,0.057373047,-0.11010742,0.95092773,-0.3317871,-0.08276367,-0.18933105,14
3.6621094,-1.2054443,3.829956,0.057128906,-0.10986328,0.9519043,-0.33251953,-0.08239746,-0.18530273,15
3.982544,-0.48828125,4.0130615,0.057617188,-0.10986328,0.9519043,-0.33251953,-0.08239746,-0.18530273,16
3.8909912,-0.50354004,3.9978027,0.057617188,-0.10961914,0.95166016,-0.328125,-0.08129883,-0.18676758,17
3.9978027,-1.0681152,3.9215088,0.057617188,-0.10961914,0.95092773,-0.328125,-0.08129883,-0.18676758,18
3.7384033,-0.76293945,4.180908,0.057128906,-0.10961914,0.95166016,-0.328125,-0.08129883,-0.18676758,19
3.7078857,-0.8544922,3.9215088,0.057128906,-0.109375,0.951416,-0.33068848,-0.07946777,-0.18859863,20
3.90625,-0.64086914,3.5247803,0.056884766,-0.10986328,0.951416,-0.33068848,-0.07946777,-0.18859863,21
3.5705566,-0.7019043,3.5095215,0.056884766,-0.10961914,0.951416,-0.3314209,-0.08459473,-0.19006348,22
4.211426,-0.91552734,4.043579,0.056396484,-0.11010742,0.951416,-0.3314209,-0.08459473,-0.19006348,23
3.5705566,-0.77819824,4.2877197,0.056152344,-0.11010742,0.9511719,-0.3314209,-0.08459473,-0.19006348,24
4.5166016,-0.9765625,4.0283203,0.055908203,-0.10986328,0.95043945,-0.3277588,-0.083862305,-0.18969727,25
4.9591064,-0.9460449,4.4555664,0.055908203,-0.10986328,0.9506836,-0.3277588,-0.083862305,-0.18969727,26
4.2877197,-0.289917,4.3792725,0.05517578,-0.109375,0.9511719,-0.3277588,-0.083862305,-0.18896484,27
3.692627,-0.24414062,3.8452148,0.055419922,-0.10986328,0.95092773,-0.32556152,-0.083496094,-0.18896484,28
3.6010742,-0.5645752,3.6468506,0.05517578,-0.11010742,0.951416,-0.32556152,-0.083496094,-0.18896484,29
3.6010742,-0.6713867,4.043579,0.055664062,-0.10961914,0.951416,-0.3277588,-0.084228516,-0.19006348,30
3.9520264,-0.8087158,4.3182373,0.055419922,-0.10986328,0.95092773,-0.3277588,-0.084228516,-0.19006348,31
3.8146973,-0.8392334,3.8146973,0.05493164,-0.10961914,0.951416,-0.3277588,-0.084228516,-0.19006348,32
3.9367676,-0.30517578,4.3182373,0.05444336,-0.10986328,0.951416,-0.32702637,-0.08129883,-0.18347168,33
3.2806396,-0.2746582,3.8604736,0.05419922,-0.10961914,0.9511719,-0.32702637,-0.08129883,-0.18347168,34
3.9367676,-0.62561035,3.6010742,0.05419922,-0.11010742,0.95166016,-0.3277588,-0.07910156,-0.18237305,35
3.768921,-0.93078613,3.6621094,0.0546875,-0.109375,0.9511719,-0.3277588,-0.07910156,-0.18237305,36
4.3945312,-0.6713867,4.1046143,0.0546875,-0.10913086,0.9511719,-0.3277588,-0.07910156,-0.1875,37
3.5095215,-0.5493164,3.9672852,0.05493164,-0.10961914,0.95166016,-0.3248291,-0.07836914,-0.1875,38
3.8909912,-0.7019043,3.7994385,0.05444336,-0.109375,0.951416,-0.3248291,-0.07836914,-0.1875,39
4.211426,-0.7019043,4.119873,0.0546875,-0.109375,0.9506836,-0.32995605,-0.08129883,-0.19042969,40
3.5705566,-0.7019043,3.753662,0.05419922,-0.109375,0.9511719,-0.32995605,-0.08129883,-0.19042969,41
4.1046143,-0.8239746,3.7231445,0.05444336,-0.10961914,0.9511719,-0.32995605,-0.08129883,-0.19042969,42
3.4484863,-0.74768066,3.7384033,0.05444336,-0.10961914,0.951416,-0.32629395,-0.083496094,-0.18237305,43
3.6468506,-0.5950928,3.616333,0.053710938,-0.10961914,0.951416,-0.32629395,-0.083496094,-0.18237305,44
3.6468506,-0.6561279,3.7841797,0.052734375,-0.11010742,0.9519043,-0.3248291,-0.08166504,-0.18530273,45
4.5318604,-0.8087158,3.9978027,0.052978516,-0.1105957,0.9523926,-0.3248291,-0.08166504,-0.18530273,46
3.5247803,-0.48828125,3.8452148,0.052978516,-0.11010742,0.9523926,-0.3248291,-0.08166504,-0.18530273,47
4.0283203,-0.8544922,4.043579,0.053466797,-0.10986328,0.9519043,-0.32556152,-0.08459473,-0.18054199,48
4.0893555,-0.88500977,7.675171,0.053222656,-0.10986328,0.9519043,-0.32556152,-0.08459473,-0.18054199,49
3.8604736,-0.45776367,3.6010742,0.052978516,-0.10986328,0.9523926,-0.32336426,-0.08129883,-0.1809082,50
4.1046143,-0.7019043,3.6621094,0.052734375,-0.10961914,0.9523926,-0.32336426,-0.08129883,-0.1809082,51
3.616333,-0.77819824,3.753662,0.052978516,-0.11035156,0.95214844,-0.32336426,-0.08129883,-0.1809082,52
3.829956,-1.0375977,3.90625,0.052001953,-0.11010742,0.95092773,-0.32299805,-0.08496094,-0.18786621,55
4.135132,-1.0986328,4.425049,0.052734375,-0.10986328,0.95166016,-0.32299805,-0.08496094,-0.18786621,56
3.6621094,-0.21362305,3.6773682,0.052246094,-0.10961914,0.9519043,-0.32299805,-0.08496094,-0.18786621,57
3.8452148,-0.47302246,3.9672852,0.052246094,-0.10986328,0.951416,-0.328125,-0.08459473,-0.18859863,58
3.6773682,-0.62561035,3.7231445,0.051757812,-0.10986328,0.951416,-0.328125,-0.08459473,-0.18859863,59
4.3640137,-0.39672852,3.829956,0.05102539,-0.11035156,0.9523926,-0.32556152,-0.08203125,-0.18823242,60
4.3182373,-0.8239746,4.3945312,0.051513672,-0.1105957,0.9523926,-0.32556152,-0.08203125,-0.18823242,61
3.189087,-0.10681152,3.9672852,0.05126953,-0.11035156,0.9519043,-0.32556152,-0.08203125,-0.18823242,62
0.061035156,-0.5493164,3.982544,0.05126953,-0.11010742,0.951416,-0.32629395,-0.08203125,-0.18530273,63
3.9672852,-0.77819824,4.0740967,0.05078125,-0.11010742,0.95166016,-0.32629395,-0.08203125,-0.18530273,64
3.5552979,-0.45776367,4.1046143,0.05102539,-0.11035156,0.95092773,-0.3248291,-0.08203125,-0.19189453,65
3.8909912,-0.22888184,4.0130615,0.05078125,-0.11010742,0.95166016,-0.3248291,-0.08203125,-0.19189453,66
3.2806396,0,3.6468506,0.05078125,-0.10961914,0.951416,-0.3248291,-0.08203125,-0.19189453,67
7.6293945,-0.2746582,4.333496,0.05053711,-0.11010742,0.9519043,-0.3244629,-0.08166504,-0.19152832,68
3.5858154,-0.21362305,3.7384033,0.05078125,-0.11035156,0.95214844,-0.3244629,-0.08166504,-0.19152832,69
3.6621094,-0.7171631,4.0893555,0.05078125,-0.11010742,0.95166016,-0.3244629,-0.084228516,-0.18786621,70
4.2419434,-0.030517578,4.211426,0.050048828,-0.11035156,0.951416,-0.3244629,-0.084228516,-0.18786621,71
3.540039,-0.36621094,4.0130615,0.05029297,-0.11010742,0.951416,-0.3244629,-0.084228516,-0.18786621,72
7.7056885,-0.5950928,4.562378,0.05029297,-0.110839844,0.951416,-0.32739258,-0.084228516,-0.18823242,73
3.8146973,-0.39672852,3.8452148,0.05078125,-0.110839844,0.9519043,-0.32739258,-0.084228516,-0.18823242,74
3.6315918,-0.5187988,4.3029785,0.05053711,-0.110839844,0.9526367,-0.32739258,-0.084228516,-0.18823242,75
3.7994385,-0.22888184,3.8452148,0.050048828,-0.11035156,0.9523926,-0.3251953,-0.08312988,-0.18786621,76
3.9672852,-0.1373291,4.3182373,0.05053711,-0.10986328,0.9519043,-0.32336426,-0.08239746,-0.18786621,79
3.8604736,-0.62561035,4.1656494,0.05029297,-0.10961914,0.9519043,-0.32336426,-0.08239746,-0.18786621,80
3.6010742,-0.5950928,3.9672852,0.049804688,-0.11035156,0.95214844,-0.3248291,-0.08312988,-0.19152832,81
3.9978027,-0.061035156,4.2877197,0.05029297,-0.1105957,0.9519043,-0.3248291,-0.08312988,-0.19152832,82
4.058838,-0.18310547,4.119873,0.049804688,-0.11010742,0.951416,-0.32409668,-0.08312988,-0.19006348,83
3.829956,-0.061035156,4.196167,0.049560547,-0.10961914,0.9519043,-0.32409668,-0.08312988,-0.19006348,84
3.9520264,-0.1373291,4.5776367,0.050048828,-0.11010742,0.9519043,-0.32409668,-0.08312988,-0.19006348,85
0.045776367,0.061035156,4.2266846,0.049560547,-0.1105957,0.95166016,-0.31750488,-0.080566406,-0.19042969,86
4.333496,0.030517578,4.547119,0.049804688,-0.11010742,0.95166016,-0.31750488,-0.080566406,-0.19042969,87
4.1656494,-0.12207031,4.2266846,0.049804688,-0.10986328,0.9511719,-0.3215332,-0.083496094,-0.18566895,88
3.90625,-0.076293945,4.3945312,0.050048828,-0.11035156,0.95166016,-0.3215332,-0.083496094,-0.18566895,89
4.3792725,-0.39672852,4.135132,0.049316406,-0.10986328,0.951416,-0.3215332,-0.083496094,-0.18566895,90
3.982544,-0.015258789,3.768921,0.049072266,-0.10961914,0.95214844,-0.3251953,-0.07946777,-0.18933105,91
3.768921,-0.22888184,4.1656494,0.048828125,-0.11010742,0.95214844,-0.3251953,-0.07946777,-0.18933105,92
4.1503906,-0.39672852,4.3029785,0.049316406,-0.11010742,0.9523926,-0.32556152,-0.07910156,-0.18786621,93
3.479004,0.15258789,4.1503906,0.049316406,-0.11035156,0.9519043,-0.32556152,-0.07910156,-0.18786621,94
3.6621094,0.2593994,4.3792725,0.049072266,-0.11035156,0.9519043,-0.32556152,-0.07910156,-0.18786621,95
3.8146973,0.1373291,4.058838,0.048828125,-0.11010742,0.9519043,-0.32336426,-0.08166504,-0.18933105,96
4.257202,-0.64086914,4.425049,0.049316406,-0.11035156,0.951416,-0.32336426,-0.08166504,-0.18933105,97
3.7231445,-0.091552734,4.348755,0.049072266,-0.1105957,0.9519043,-0.321167,-0.080566406,-0.18457031,98
3.768921,0.15258789,4.3640137,0.049316406,-0.10986328,0.95214844,-0.321167,-0.080566406,-0.18457031,100
3.6315918,0,4.3029785,0.049560547,-0.10986328,0.95214844,-0.321167,-0.080566406,-0.18530273,101
0.21362305,-0.10681152,4.638672,0.050048828,-0.11010742,0.95214844,-0.321167,-0.080566406,-0.18530273,102
3.8146973,0.1373291,4.058838,0.049560547,-0.11010742,0.9519043,-0.32263184,-0.08203125,-0.18347168,103
3.90625,-0.24414062,4.4403076,0.048828125,-0.11035156,0.9519043,-0.32263184,-0.08203125,-0.18347168,104
3.9367676,-0.045776367,4.623413,0.048828125,-0.10986328,0.95166016,-0.32263184,-0.08203125,-0.18347168,105
4.0130615,-0.2593994,4.196167,0.048339844,-0.10961914,0.9511719,-0.3251953,-0.080566406,-0.1907959,106
3.6621094,0.061035156,4.2877197,0.049072266,-0.10961914,0.951416,-0.3251953,-0.080566406,-0.1907959,107
3.40271,-0.015258789,4.0740967,0.049316406,-0.10961914,0.951416,-0.32299805,-0.08203125,-0.18640137,108
3.5858154,0.22888184,4.4403076,0.049560547,-0.10961914,0.9519043,-0.32299805,-0.08203125,-0.18640137,109
3.829956,0.2746582,4.0893555,0.049560547,-0.10961914,0.95214844,-0.32299805,-0.08203125,-0.18640137,110
3.9672852,-0.39672852,4.6691895,0.049072266,-0.109375,0.95166016,-0.32226562,-0.08276367,-0.18859863,111
3.6621094,-0.045776367,4.119873,0.049072266,-0.10986328,0.95214844,-0.32226562,-0.08276367,-0.18859863,112
3.3569336,0.4119873,4.3945312,0.049316406,-0.10986328,0.9523926,-0.32226562,-0.08239746,-0.19152832,113
3.829956,-3.7994385,4.3182373,0.049316406,-0.10986328,0.9519043,-0.32226562,-0.08239746,-0.19152832,114
3.7384033,-0.32043457,4.638672,0.049804688,-0.11010742,0.9519043,-0.32226562,-0.08239746,-0.19152832,115
3.692627,0.5187988,4.135132,0.049316406,-0.11035156,0.9519043,-0.3251953,-0.080566406,-0.18676758,116
3.7994385,0.8392334,4.5776367,0.049316406,-0.1105957,0.9519043,-0.3251953,-0.080566406,-0.18676758,117
3.3569336,0.21362305,4.0130615,0.049316406,-0.110839844,0.95166016,-0.3251953,-0.083496094,-0.18859863,118
3.4332275,0.18310547,4.1046143,0.049804688,-0.11010742,0.95166016,-0.3251953,-0.083496094,-0.18859863,119
3.768921,-0.10681152,4.6081543,0.048828125,-0.10986328,0.9519043,-0.3251953,-0.083496094,-0.18859863,120
3.768921,0,4.3945312,0.049316406,-0.10961914,0.9519043,-0.3244629,-0.08312988,-0.18237305,121
3.5858154,-0.091552734,4.3945312,0.049316406,-0.11010742,0.9511719,-0.3244629,-0.08312988,-0.18237305,122
3.9978027,-0.030517578,4.1503906,0.049072266,-0.10961914,0.95166016,-0.3244629,-0.08312988,-0.18237305,123
3.2348633,0.030517578,4.1656494,0.048828125,-0.10986328,0.95166016,-0.32299805,-0.08239746,-0.18713379,124
3.2958984,0.48828125,4.058838,0.048339844,-0.10986328,0.9519043,-0.32299805,-0.08239746,-0.18713379,125
3.4942627,0.1373291,3.7994385,0.048339844,-0.109375,0.95166016,-0.32336426,-0.08203125,-0.18457031,126
3.3111572,0.22888184,4.4555664,0.048339844,-0.10961914,0.9519043,-0.32336426,-0.08203125,-0.18457031,127
3.6315918,0.18310547,4.272461,0.048583984,-0.11035156,0.9519043,-0.32336426,-0.08203125,-0.18457031,128
3.768921,0.045776367,4.2877197,0.048828125,-0.11035156,0.95214844,-0.321167,-0.08203125,-0.1875,129
3.5095215,-0.18310547,4.4555664,0.048339844,-0.10986328,0.9523926,-0.321167,-0.08203125,-0.1875,130
3.5705566,0.35095215,4.180908,0.048583984,-0.10961914,0.9519043,-0.32373047,-0.08239746,-0.18237305,131
3.753662,0.061035156,4.3792725,0.048339844,-0.10986328,0.95214844,-0.32373047,-0.08239746,-0.18237305,132
3.5095215,0.061035156,4.3029785,0.047607422,-0.11010742,0.9523926,-0.32373047,-0.08239746,-0.18237305,133
4.135132,0.2746582,4.3945312,0.048095703,-0.10986328,0.9523926,-0.3218994,-0.07836914,-0.18200684,134
3.7994385,0.16784668,4.623413,0.048339844,-0.10986328,0.9519043,-0.3218994,-0.07836914,-0.18200684,135
3.9978027,0.12207031,4.501343,0.048828125,-0.1105957,0.951416,-0.32299805,-0.07910156,-0.18603516,136
3.7078857,-0.030517578,4.0283203,0.048339844,-0.1105957,0.95214844,-0.32299805,-0.07910156,-0.18603516,137
3.8757324,0.21362305,4.272461,0.048095703,-0.11035156,0.95288086,-0.32299805,-0.07910156,-0.18603516,138
3.9367676,0.21362305,4.3029785,0.047851562,-0.10986328,0.9526367,-0.3215332,-0.07763672,-0.18457031,139
3.7384033,0.19836426,3.8909912,0.048095703,-0.10961914,0.9523926,-0.3215332,-0.07763672,-0.18457031,140
3.2806396,-0.10681152,4.1503906,0.048095703,-0.10986328,0.9523926,-0.3215332,-0.07946777,-0.18676758,141
4.0130615,0.38146973,4.562378,0.048095703,-0.11035156,0.9526367,-0.3215332,-0.07946777,-0.18676758,142
3.3874512,0.24414062,4.425049,0.047851562,-0.10986328,0.9519043,-0.3215332,-0.07946777,-0.18676758,143
3.616333,0.24414062,4.196167,0.048095703,-0.109375,0.9511719,-0.32299805,-0.080566406,-0.18859863,144
4.0130615,0.061035156,4.3792725,0.048828125,-0.10961914,0.951416,-0.32299805,-0.080566406,-0.18859863,145
4.3182373,-0.35095215,4.5166016,0.048583984,-0.10961914,0.9519043,-0.32226562,-0.08129883,-0.18859863,146
3.4332275,-0.21362305,4.3182373,0.048339844,-0.11035156,0.95166016,-0.32226562,-0.08129883,-0.18859863,147
3.7384033,0.36621094,4.0740967,0.047851562,-0.10986328,0.95214844,-0.32226562,-0.08129883,-0.18859863,148
3.768921,0.45776367,4.272461,0.047851562,-0.10961914,0.9519043,-0.3251953,-0.080200195,-0.18859863,149
4.0130615,0.061035156,4.5166016,0.047851562,-0.10986328,0.95166016,-0.3251953,-0.080200195,-0.18859863,150
4.0130615,-0.030517578,4.425049,0.048095703,-0.10961914,0.95214844,-0.32080078,-0.08129883,-0.18566895,151
3.2348633,0.30517578,7.659912,0.048339844,-0.11010742,0.9523926,-0.32080078,-0.08129883,-0.18566895,152
4.211426,0.35095215,4.7302246,0.048095703,-0.11010742,0.9523926,-0.32080078,-0.08129883,-0.18566895,153
3.6773682,0.15258789,4.4555664,0.048583984,-0.10961914,0.9526367,-0.3215332,-0.08239746,-0.19299316,154
3.829956,-0.61035156,7.736206,0.048583984,-0.10961914,0.9519043,-0.3215332,-0.08239746,-0.19299316,155
3.829956,-3.8452148,4.4403076,0.047607422,-0.10961914,0.9523926,-0.32336426,-0.08129883,-0.19152832,156
3.829956,0.091552734,4.257202,0.048095703,-0.10986328,0.95214844,-0.32336426,-0.08129883,-0.19152832,157
4.2266846,0.015258789,4.257202,0.048339844,-0.11010742,0.9523926,-0.32336426,-0.08129883,-0.19152832,158
3.479004,0.015258789,4.348755,0.048339844,-0.11010742,0.95214844,-0.3218994,-0.08203125,-0.18640137,159
3.5705566,0.21362305,4.2419434,0.048339844,-0.10986328,0.9519043,-0.3218994,-0.08203125,-0.18640137,160
3.8757324,-0.076293945,4.135132,0.047851562,-0.10986328,0.9519043,-0.3218994,-0.08093262,-0.18640137,161
0.1373291,0.16784668,4.3182373,0.047607422,-0.10961914,0.9519043,-0.31896973,-0.08093262,-0.18640137,162
4.0130615,0,4.257202,0.047607422,-0.109375,0.9519043,-0.31896973,-0.08093262,-0.18640137,163
3.982544,-0.18310547,4.0740967,0.047607422,-0.10986328,0.9519043,-0.3218994,-0.08276367,-0.18713379,164
3.5552979,0.15258789,4.1656494,0.04736328,-0.10986328,0.95214844,-0.3218994,-0.08276367,-0.18713379,165
3.8604736,-0.015258789,4.6844482,0.04736328,-0.11010742,0.9519043,-0.32226562,-0.080566406,-0.19006348,166
4.1046143,0.2746582,4.4555664,0.047607422,-0.10961914,0.9519043,-0.32226562,-0.080566406,-0.19006348,167
3.4484863,0.5340576,4.333496,0.047607422,-0.109375,0.95166016,-0.32226562,-0.080566406,-0.19006348,168
3.616333,-0.16784668,4.486084,0.04736328,-0.10986328,0.9519043,-0.32373047,-0.080566406,-0.19042969,169
0,0.10681152,4.1046143,0.04711914,-0.10986328,0.95214844,-0.32373047,-0.080566406,-0.19042969,170
3.8452148,0.091552734,4.196167,0.046875,-0.10961914,0.9519043,-0.32373047,-0.080566406,-0.19042969,171
3.5552979,0.4272461,4.3029785,0.04711914,-0.10961914,0.9526367,-0.32080078,-0.07763672,-0.18640137,172
3.5705566,0.2593994,4.196167,0.047607422,-0.10986328,0.95214844,-0.32080078,-0.07763672,-0.18640137,173
3.8604736,-0.289917,4.40979,0.047851562,-0.10986328,0.95214844,-0.32299805,-0.079833984,-0.18823242,174
3.326416,0.10681152,4.1656494,0.048095703,-0.11010742,0.9519043,-0.32299805,-0.079833984,-0.18823242,175
4.043579,-0.12207031,4.501343,0.04711914,-0.11010742,0.95166016,-0.32299805,-0.079833984,-0.18823242,176
3.9367676,0.045776367,4.2877197,0.046875,-0.11035156,0.9523926,-0.32409668,-0.08166504,-0.18933105,177
3.0059814,0.18310547,4.0283203,0.046875,-0.11035156,0.95214844,-0.32409668,-0.08166504,-0.18933105,178
3.90625,-0.35095215,4.5318604,0.047607422,-0.11035156,0.9519043,-0.32336426,-0.07946777,-0.19372559,179
3.616333,-0.38146973,4.4403076,0.04736328,-0.1105957,0.95214844,-0.32336426,-0.07946777,-0.19372559,180
3.616333,0.4272461,4.043579,0.04736328,-0.11010742,0.9511719,-0.32336426,-0.07946777,-0.19372559,181
3.6468506,0.1373291,3.9672852,0.04711914,-0.11010742,0.95166016,-0.32263184,-0.07910156,-0.18933105,182
3.6010742,-0.16784668,4.058838,0.04663086,-0.10986328,0.9523926,-0.32263184,-0.07910156,-0.18933105,183
3.753662,-0.030517578,4.1656494,0.046875,-0.10961914,0.9519043,-0.31933594,-0.07727051,-0.19152832,184
4.2419434,-0.2593994,4.3182373,0.04711914,-0.11010742,0.95166016,-0.31933594,-0.07727051,-0.19152832,185
3.7994385,-0.15258789,4.6691895,0.04736328,-0.11035156,0.9519043,-0.31933594,-0.07727051,-0.19152832,186
3.1738281,0.10681152,3.5095215,0.04663086,-0.1105957,0.9523926,-0.52734375,0.027832031,0.10272217,187
3.6773682,0.4119873,4.3640137,0.04638672,-0.11035156,0.9523926,-0.52734375,0.027832031,0.10272217,188
4.348755,0.19836426,4.272461,0.046875,-0.11010742,0.9523926,-0.52770996,0.030395508,0.10455322,189
4.0740967,-0.22888184,4.180908,0.04711914,-0.10986328,0.95214844,-0.52770996,0.030395508,0.10455322,190
3.3111572,0.2746582,3.9215088,0.04711914,-0.10913086,0.9523926,-0.52770996,0.030395508,0.10455322,191
3.5705566,0.45776367,4.1046143,0.04638672,-0.10864258,0.9526367,-0.5255127,0.030395508,0.10235596,192
3.5705566,0.061035156,4.0283203,0.04638672,-0.10913086,0.95214844,-0.5255127,0.030395508,0.10235596,193
4.058838,-0.12207031,4.211426,0.046142578,-0.109375,0.95092773,-0.5262451,0.029296875,0.105651855,194
3.463745,3.829956,4.3792725,0.045898438,-0.11010742,0.95166016,-0.5262451,0.029296875,0.105651855,195
3.8604736,-0.12207031,4.486084,0.04663086,-0.11010742,0.951416,-0.5262451,0.029296875,0.105651855,196
3.3416748,0.061035156,4.3029785,0.04663086,-0.10961914,0.9519043,-0.52734375,0.027832031,0.10784912,197
3.768921,0.061035156,4.6081543,0.04663086,-0.10961914,0.9523926,-0.52734375,0.027832031,0.10784912,198
3.8452148,0.289917,4.119873,0.04663086,-0.10986328,0.9526367,-0.52697754,0.027832031,0.10638428,199
3.7231445,0.12207031,4.3945312,0.046142578,-0.11010742,0.95214844,-0.52697754,0.027832031,0.10638428,200
4.0130615,-0.10681152,4.3640137,0.046875,-0.10986328,0.95214844,-0.52697754,0.027832031,0.10638428,201
4.0130615,0.15258789,4.1503906,0.04663086,-0.10913086,0.9519043,-0.5258789,0.02709961,0.101623535,202
4.3029785,3.8909912,4.1046143,0.046875,-0.10961914,0.9519043,-0.5258789,0.02709961,0.101623535,203
4.0130615,0.10681152,4.40979,0.04663086,-0.10986328,0.9523926,-0.5258789,0.029663086,0.10638428,204
3.6621094,0.15258789,4.211426,0.04638672,-0.11010742,0.9523926,-0.5222168,0.029663086,0.10638428,205
4.135132,0.21362305,4.547119,0.04663086,-0.11010742,0.9523926,-0.5222168,0.029663086,0.10638428,206
0.15258789,0.12207031,4.3029785,0.04711914,-0.11035156,0.9523926,-0.5266113,0.027832031,0.10455322,207
3.6315918,-0.39672852,4.348755,0.04663086,-0.11010742,0.9523926,-0.5266113,0.027832031,0.10455322,208
3.829956,0.50354004,4.2419434,0.046142578,-0.10961914,0.95214844,-0.5266113,0.027832031,0.10858154,209
3.9520264,-0.22888184,4.5776367,0.04663086,-0.10913086,0.95166016,-0.52038574,0.028198242,0.10858154,210
3.4332275,-0.030517578,4.135132,0.04663086,-0.10961914,0.9519043,-0.52038574,0.028198242,0.10858154,211
0.061035156,-0.030517578,3.982544,0.045898438,-0.10961914,0.95288086,-0.52441406,0.02709961,0.10858154,212
3.479004,-0.015258789,4.4555664,0.045410156,-0.10986328,0.9526367,-0.52441406,0.02709961,0.10858154,213
3.768921,0.38146973,4.2877197,0.045410156,-0.10986328,0.9519043,-0.52441406,0.02709961,0.10308838,214
3.8146973,0.061035156,4.3945312,0.045166016,-0.11010742,0.95214844,-0.5262451,0.027832031,0.10308838,215
3.7231445,-3.829956,4.4403076,0.046142578,-0.10986328,0.9519043,-0.5262451,0.027832031,0.10308838,216
3.6468506,0.076293945,4.0283203,0.045898438,-0.10961914,0.9519043,-0.52697754,0.026000977,0.105651855,217
3.7384033,-0.1373291,4.333496,0.045654297,-0.11010742,0.95166016,-0.52697754,0.026000977,0.105651855,218
3.616333,-0.076293945,4.2266846,0.046142578,-0.11010742,0.9519043,-0.52697754,0.026000977,0.105651855,219
4.0740967,-0.12207031,4.3792725,0.045898438,-0.10986328,0.95214844,-0.5247803,0.024169922,0.10675049,220
3.8452148,0,4.425049,0.045166016,-0.10986328,0.9523926,-0.5247803,0.024169922,0.10675049,221
4.1503906,-0.030517578,4.3182373,0.045410156,-0.11010742,0.9526367,-0.52734375,0.026367188,0.10784912,222
3.5095215,0.15258789,3.692627,0.045654297,-0.109375,0.95288086,-0.52734375,0.026367188,0.10784912,223
3.6773682,-0.12207031,4.348755,0.045410156,-0.10986328,0.9523926,-0.5284424,0.027832031,0.10638428,226
3.7841797,0.030517578,4.180908,0.044433594,-0.10986328,0.9523926,-0.5280762,0.027832031,0.1071167,227
3.5858154,-0.5187988,4.2877197,0.045898438,-0.11035156,0.95166016,-0.5280762,0.027832031,0.1071167,229
3.692627,-0.5187988,3.982544,0.044189453,-0.10961914,0.9526367,-0.5262451,0.026000977,0.10308838,230
3.753662,1.0528564,4.180908,0.045654297,-0.10864258,0.953125,-0.5262451,0.026000977,0.10308838,231
3.3721924,0.38146973,3.8909912,0.046142578,-0.111328125,0.9511719,-0.5262451,0.028930664,0.10272217,232
3.2653809,-0.88500977,4.180908,0.044921875,-0.111083984,0.951416,-0.5262451,0.028930664,0.10272217,233
3.9672852,-0.16784668,4.4555664,0.044921875,-0.10986328,0.9526367,-0.5262451,0.028930664,0.10272217,234
4.043579,0.90026855,4.135132,0.045166016,-0.10913086,0.95336914,-0.52697754,0.026733398,0.10784912,235
3.8146973,0.74768066,4.058838,0.04638672,-0.1081543,0.95214844,-0.52697754,0.026733398,0.10784912,236
3.1280518,-0.36621094,4.180908,0.04638672,-0.10864258,0.9519043,-0.5251465,0.026367188,0.10638428,237
3.7231445,-0.47302246,4.257202,0.044921875,-0.110839844,0.95214844,-0.5251465,0.026367188,0.10638428,238
3.616333,0.35095215,3.8452148,0.045654297,-0.10888672,0.9519043,-0.52697754,0.027832031,0.105651855,241
3.463745,0.2746582,4.348755,0.045410156,-0.10913086,0.95288086,-0.5262451,0.026733398,0.10235596,244
3.7231445,0.64086914,4.638672,0.045654297,-0.10864258,0.9523926,-0.52404785,0.028930664,0.09979248,245
3.8452148,0.15258789,4.272461,0.045898438,-0.110839844,0.951416,-0.52404785,0.028930664,0.09979248,246
3.463745,-0.7171631,4.0740967,0.045654297,-0.111083984,0.9511719,-0.529541,0.029296875,0.09942627,247
3.9367676,0.44250488,4.180908,0.045410156,-0.10986328,0.95288086,-0.529541,0.029296875,0.09942627,248
7.736206,0.90026855,4.547119,0.044677734,-0.109375,0.9526367,-0.529541,0.029296875,0.09942627,249
3.9672852,0.35095215,4.211426,0.044433594,-0.10913086,0.95166016,-0.52697754,0.02746582,0.1038208,250
3.7384033,-0.33569336,3.768921,0.045166016,-0.11010742,0.9511719,-0.52697754,0.02746582,0.1038208,251
3.9367676,-0.015258789,4.2877197,0.044677734,-0.111328125,0.95214844,-0.52697754,0.026733398,0.10015869,252
3.8452148,0.5340576,4.5166016,0.043945312,-0.10961914,0.9526367,-0.5262451,0.026733398,0.10015869,253
7.3394775,1.0223389,4.3640137,0.044677734,-0.109375,0.9519043,-0.5262451,0.026733398,0.10015869,254
3.7841797,-0.35095215,4.4403076,0.044921875,-0.10961914,0.951416,-0.5266113,0.028930664,0.10089111,255
3.4484863,-0.24414062,4.2419434,0.044433594,-0.10961914,0.9519043,-0.5266113,0.028930664,0.10089111,0
3.479004,0.579834,4.40979,0.044921875,-0.11010742,0.9519043,-0.5266113,0.028930664,0.10089111,1
3.90625,0.48828125,4.1503906,0.044677734,-0.10986328,0.95214844,-0.5251465,0.026733398,0.10089111,2
4.211426,0.22888184,4.3945312,0.044189453,-0.10986328,0.9523926,-0.5251465,0.026733398,0.10089111,3
3.6468506,0.10681152,4.4555664,0.045654297,-0.10961914,0.9519043,-0.52697754,0.025634766,0.10235596,4
3.8909912,-0.12207031,4.3945312,0.044921875,-0.111083984,0.9519043,-0.52697754,0.025634766,0.10235596,5
3.4179688,0.35095215,4.3945312,0.044433594,-0.10961914,0.95288086,-0.52697754,0.025634766,0.10272217,6
3.9978027,0.91552734,4.5166016,0.044433594,-0.10913086,0.9526367,-0.52404785,0.028198242,0.10272217,7
3.7841797,-0.061035156,4.2877197,0.044677734,-0.10986328,0.95214844,-0.52404785,0.028198242,0.10272217,8
4.0130615,-0.45776367,4.0740967,0.044189453,-0.11010742,0.9519043,-0.52368164,0.025268555,0.10455322,9
4.5166016,0.1373291,4.776001,0.044189453,-0.11035156,0.953125,-0.52368164,0.025268555,0.10455322,10
0.015258789,0.62561035,4.1656494,0.043945312,-0.10961914,0.953125,-0.52368164,0.025268555,0.10455322,11
3.250122,0.579834,4.425049,0.044677734,-0.109375,0.9526367,-0.5233154,0.026733398,0.1038208,12
3.540039,-0.030517578,4.211426,0.044921875,-0.10913086,0.9519043,-0.5233154,0.026733398,0.1038208,13
3.90625,-0.2593994,4.1046143,0.044921875,-0.11035156,0.9519043,-0.52441406,0.027832031,0.10272217,14
3.7994385,0.36621094,4.043579,0.044921875,-0.11010742,0.9526367,-0.52441406,0.027832031,0.10272217,15
3.40271,0.4272461,4.058838,0.044677734,-0.11010742,0.9519043,-0.52441406,0.027832031,0.10272217,16
3.8757324,0.061035156,4.3792725,0.044677734,-0.110839844,0.95214844,-0.5266113,0.026733398,0.10272217,17
3.7994385,-0.061035156,4.3640137,0.044921875,-0.110839844,0.9519043,-0.5266113,0.026733398,0.10272217,18
3.479004,-0.030517578,4.272461,0.044433594,-0.111083984,0.95166016,-0.5247803,0.026367188,0.1071167,19
3.768921,0.030517578,4.1503906,0.043945312,-0.11035156,0.95214844,-0.5247803,0.026367188,0.1071167,20
4.043579,0.38146973,4.5166016,0.044433594,-0.10961914,0.9526367,-0.5247803,0.026367188,0.1071167,21
4.2419434,0.1373291,4.5928955,0.044433594,-0.10961914,0.9523926,-0.5218506,0.028198242,0.105285645,22
3.692627,-0.15258789,4.043579,0.044189453,-0.11010742,0.95214844,-0.5218506,0.028198242,0.105285645,23
3.6468506,-0.33569336,4.3945312,0.04321289,-0.11010742,0.9526367,-0.5262451,0.028198242,0.10015869,24
3.8909912,0.30517578,4.211426,0.04345703,-0.109375,0.9523926,-0.5262451,0.028198242,0.10015869,25
3.7841797,0.18310547,4.0130615,0.043701172,-0.10961914,0.9523926,-0.5262451,0.028198242,0.10015869,26
3.6773682,-0.1373291,3.9978027,0.044189453,-0.11035156,0.95214844,-0.5299072,0.026367188,0.10345459,27
4.0740967,-0.12207031,4.135132,0.043701172,-0.1105957,0.95214844,-0.5299072,0.026367188,0.10345459,28
3.7231445,0.289917,4.2419434,0.04345703,-0.11010742,0.9526367,-0.5258789,0.0234375,0.10784912,29
4.272461,0.5340576,4.7302246,0.044189453,-0.10913086,0.95214844,-0.5258789,0.0234375,0.10784912,30
4.135132,0.030517578,4.562378,0.044433594,-0.10961914,0.9519043,-0.5258789,0.0234375,0.10784912,31
7.659912,-0.015258789,4.043579,0.044433594,-0.11035156,0.95214844,-0.5262451,0.024902344,0.1104126,32
4.135132,0.091552734,4.6539307,0.043945312,-0.11035156,0.9526367,-0.5262451,0.024902344,0.1104126,33
3.540039,0.6866455,4.1503906,0.04345703,-0.109375,0.9523926,-0.52770996,0.028564453,0.10345459,34
3.8146973,0.35095215,4.6539307,0.043701172,-0.10961914,0.95214844,-0.52770996,0.028564453,0.10345459,35
3.7994385,0.16784668,4.2877197,0.043701172,-0.10986328,0.9526367,-0.52770996,0.028564453,0.10345459,36
3.768921,0.15258789,4.0130615,0.04345703,-0.1105957,0.9526367,-0.52441406,0.026367188,0.10821533,37
3.9367676,-0.2746582,4.3945312,0.04321289,-0.11035156,0.9526367,-0.52441406,0.026367188,0.10821533,38
4.425049,0.18310547,4.6539307,0.04345703,-0.10986328,0.95214844,-0.5247803,0.026000977,0.10308838,39
3.829956,0.5950928,4.211426,0.043701172,-0.10986328,0.9523926,-0.5247803,0.026000977,0.10308838,40
3.5552979,0.2746582,4.135132,0.043945312,-0.10986328,0.9519043,-0.5247803,0.026000977,0.10308838,41
3.3416748,-0.32043457,4.1503906,0.043945312,-0.11010742,0.95214844,-0.5266113,0.029296875,0.10638428,42
4.119873,0.18310547,4.8065186,0.04321289,-0.10961914,0.9523926,-0.5266113,0.029296875,0.10638428,43
3.9215088,0.24414062,4.1503906,0.04321289,-0.10961914,0.9523926,-0.5266113,0.029296875,0.10345459,44
3.7078857,0.39672852,4.135132,0.04345703,-0.10961914,0.95214844,-0.5255127,0.02746582,0.10345459,45
4.5928955,0.16784668,4.1656494,0.043701172,-0.10961914,0.95214844,-0.5255127,0.02746582,0.10345459,46
3.7994385,0.47302246,4.425049,0.043701172,-0.10986328,0.9526367,-0.52734375,0.023803711,0.10345459,47
3.7231445,0.15258789,4.4555664,0.04321289,-0.10913086,0.9523926,-0.52734375,0.023803711,0.10345459,48
4.3182373,0.5340576,4.257202,0.04345703,-0.109375,0.9519043,-0.52734375,0.023803711,0.10345459,49
4.043579,0.39672852,4.0740967,0.04321289,-0.109375,0.95288086,-0.52404785,0.026000977,0.101623535,50
4.4555664,0.30517578,4.6691895,0.04296875,-0.10986328,0.9523926,-0.52404785,0.026000977,0.101623535,51
4.0283203,0.5493164,4.272461,0.04272461,-0.11010742,0.9523926,-0.52441406,0.024902344,0.10235596,52
3.4484863,0.1373291,4.0893555,0.04296875,-0.10986328,0.9519043,-0.52441406,0.024902344,0.10235596,53
3.540039,0.22888184,4.211426,0.04321289,-0.11010742,0.95214844,-0.52441406,0.024902344,0.10235596,54
4.257202,-0.24414062,5.0964355,0.043701172,-0.10986328,0.9523926,-0.52734375,0.024169922,0.10748291,55
3.8757324,0.39672852,4.272461,0.04345703,-0.10986328,0.9523926,-0.52734375,0.024169922,0.10748291,56
3.753662,0.22888184,4.486084,0.04296875,-0.10986328,0.9523926,-0.522583,0.025268555,0.10675049,57
0.076293945,0.091552734,4.501343,0.04296875,-0.10986328,0.95288086,-0.522583,0.025268555,0.10675049,58
3.8757324,0.076293945,4.257202,0.04296875,-0.10986328,0.95336914,-0.522583,0.025268555,0.10675049,59
4.3182373,0.21362305,4.8217773,0.04296875,-0.10961914,0.95288086,-0.5233154,0.027832031,0.101257324,63
3.6468506,0.061035156,4.501343,0.04321289,-0.10986328,0.9519043,-0.522583,0.024536133,0.10345459,66
3.7384033,0.076293945,4.501343,0.04296875,-0.10986328,0.9519043,-0.5233154,0.023071289,0.10491943,67
3.8452148,0.24414062,4.0740967,0.04321289,-0.10961914,0.9519043,-0.5233154,0.023071289,0.10491943,68
3.7384033,-0.15258789,4.348755,0.04296875,-0.11035156,0.9523926,-0.5233154,0.023071289,0.10491943,69
3.40271,-3.90625,4.119873,0.04345703,-0.11035156,0.9526367,-0.52075195,0.025268555,0.10418701,70
3.6773682,0.030517578,4.425049,0.04345703,-0.11010742,0.9523926,-0.52075195,0.025268555,0.10418701,71
3.8452148,0.12207031,4.2266846,0.04345703,-0.10986328,0.9519043,-0.5247803,0.026367188,0.10272217,72
3.6621094,-0.061035156,3.9672852,0.04321289,-0.10986328,0.95214844,-0.5247803,0.026367188,0.10272217,73
3.0059814,0.16784668,4.0130615,0.04321289,-0.10961914,0.95214844,-0.5247803,0.026367188,0.10272217,74
3.8452148,0.50354004,4.2419434,0.04321289,-0.10961914,0.9523926,-0.52368164,0.025268555,0.10418701,75
3.6468506,0.2746582,4.5166016,0.04321289,-0.109375,0.9526367,-0.52368164,0.025268555,0.10418701,76
4.180908,0.289917,4.3640137,0.04321289,-0.109375,0.9523926,-0.5251465,0.026367188,0.10345459,77
3.8452148,0.38146973,4.2419434,0.04296875,-0.10961914,0.953125,-0.5251465,0.026367188,0.10345459,78
3.7384033,0.289917,4.2877197,0.04321289,-0.10961914,0.953125,-0.5251465,0.026367188,0.10345459,79
3.8909912,-0.015258789,4.5166016,0.04248047,-0.10961914,0.95288086,-0.52404785,0.028564453,0.109680176,80
3.9215088,0.2593994,4.0893555,0.04248047,-0.10961914,0.9523926,-0.52404785,0.028564453,0.109680176,81
4.043579,0.33569336,4.196167,0.04248047,-0.11035156,0.9519043,-0.5222168,0.028930664,0.10638428,82
3.479004,0.2746582,4.135132,0.042236328,-0.1105957,0.9519043,-0.5222168,0.028930664,0.10638428,83
3.5247803,0.39672852,4.3792725,0.041992188,-0.11035156,0.9523926,-0.5222168,0.028930664,0.10638428,84
3.7384033,0.32043457,4.272461,0.04272461,-0.11035156,0.9523926,-0.5247803,0.030395508,0.1071167,85
3.8604736,0.15258789,4.3640137,0.04296875,-0.10986328,0.95214844,-0.5247803,0.030395508,0.1071167,86
3.6010742,0.061035156,4.1503906,0.042236328,-0.11010742,0.9519043,-0.522583,0.028198242,0.10821533,87
3.7841797,-0.18310547,4.3792725,0.04296875,-0.10961914,0.9523926,-0.522583,0.028198242,0.10821533,88
3.7078857,0.2746582,4.470825,0.04248047,-0.10961914,0.95214844,-0.522583,0.028198242,0.10821533,89
2.89917,0.47302246,4.425049,0.042236328,-0.109375,0.95288086,-0.52038574,0.029296875,0.105285645,90
3.692627,-3.8909912,4.501343,0.04272461,-0.10913086,0.95214844,-0.52038574,0.029296875,0.105285645,91
3.8604736,0.45776367,4.2419434,0.04321289,-0.10888672,0.95214844,-0.52038574,0.029296875,0.014099121,92
3.6468506,0.44250488,4.3945312,0.04345703,-0.109375,0.953125,-0.5218506,0.030395508,0.10784912,93
3.6468506,0.045776367,4.5166016,0.04296875,-0.11010742,0.9526367,-0.5218506,0.030395508,0.10784912,94
4.119873,0.21362305,4.486084,0.04272461,-0.10961914,0.9526367,-0.5229492,0.028930664,0.10235596,95
3.5552979,0.62561035,4.135132,0.04272461,-0.10961914,0.9523926,-0.5229492,0.028930664,0.10235596,96
3.8604736,0.24414062,4.4555664,0.04296875,-0.11035156,0.9523926,-0.5229492,0.028930664,0.10235596,97
3.7384033,0.47302246,4.547119,0.04321289,-0.10986328,0.953125,-0.522583,0.02746582,0.10345459,98
4.3792725,0.2593994,4.4403076,0.04296875,-0.10986328,0.953125,-0.522583,0.02746582,0.10345459,99
3.7384033,0.2746582,4.1503906,0.04272461,-0.10961914,0.95288086,-0.52368164,0.02709961,0.10015869,100
3.4484863,0.2746582,4.1656494,0.04272461,-0.109375,0.953125,-0.52368164,0.02709961,0.10015869,101
3.7231445,-0.030517578,4.40979,0.04248047,-0.109375,0.9536133,-0.52368164,0.02709961,0.10089111,102
3.9520264,0.2593994,4.3640137,0.04248047,-0.10913086,0.953125,-0.5196533,0.028930664,0.10089111,103
3.982544,0.12207031,4.40979,0.04248047,-0.109375,0.9526367,-0.5196533,0.028930664,0.10089111,104
3.7384033,0.22888184,4.257202,0.04296875,-0.10961914,0.9519043,-0.52001953,0.024169922,0.10235596,105
3.9215088,0.35095215,4.562378,0.04272461,-0.109375,0.9519043,-0.52001953,0.024169922,0.10235596,106
3.2806396,0.45776367,4.180908,0.04248047,-0.10986328,0.9523926,-0.52001953,0.024169922,0.10235596,107
4.180908,0.30517578,4.348755,0.042236328,-0.10961914,0.95288086,-0.5192871,0.028930664,0.10308838,108
3.7841797,0.289917,4.547119,0.04321289,-0.10986328,0.9526367,-0.5192871,0.028930664,0.10308838,109
3.8146973,-0.061035156,4.211426,0.041992188,-0.10986328,0.953125,-0.52038574,0.023803711,0.10308838,110
4.3792725,0.33569336,4.547119,0.042236328,-0.10913086,0.9526367,-0.52038574,0.023803711,0.10308838,111
3.5552979,0.061035156,4.333496,0.041992188,-0.10913086,0.9523926,-0.52038574,0.023803711,0.10308838,112
3.5858154,0.21362305,4.0130615,0.041992188,-0.10913086,0.9526367,-0.5218506,0.025268555,0.09979248,113
3.8757324,0.091552734,4.333496,0.042236328,-0.10888672,0.953125,-0.5218506,0.025268555,0.09979248,114
3.479004,0.5950928,4.562378,0.041992188,-0.10913086,0.953125,-0.5251465,0.024536133,0.10675049,115
3.616333,0.5645752,3.9367676,0.042236328,-0.10913086,0.9526367,-0.5251465,0.024536133,0.10675049,116
3.7384033,-0.47302246,4.348755,0.04248047,-0.10864258,0.9523926,-0.5251465,0.024536133,0.10675049,117
3.6468506,0.32043457,4.257202,0.041992188,-0.10913086,0.95288086,-0.5233154,0.02709961,0.10455322,118
4.2877197,0.76293945,4.501343,0.041992188,-0.109375,0.95288086,-0.5233154,0.02709961,0.10455322,119
4.1046143,0.39672852,4.5928955,0.041748047,-0.10913086,0.9523926,-0.5233154,0.02709961,0.10491943,120
3.6468506,0,4.3640137,0.042236328,-0.10913086,0.9523926,-0.5233154,0.02709961,0.10491943,121
3.7841797,0.19836426,4.1046143,0.042236328,-0.10913086,0.9523926,-0.5233154,0.02709961,0.10491943,122
3.9215088,0.5187988,4.180908,0.041992188,-0.10961914,0.9526367,-0.5222168,0.026733398,0.10235596,123
3.8452148,-0.061035156,4.486084,0.04248047,-0.10913086,0.95288086,-0.5222168,0.026733398,0.10235596,124
3.7078857,0.579834,4.257202,0.04248047,-0.109375,0.9526367,-0.5218506,0.026367188,0.10308838,125
3.9672852,0.579834,4.257202,0.04272461,-0.10913086,0.9523926,-0.5218506,0.026367188,0.10308838,126
3.753662,-0.12207031,4.5318604,0.04296875,-0.10961914,0.95214844,-0.5218506,0.026367188,0.10308838,127
4.0130615,0.015258789,4.4555664,0.04248047,-0.109375,0.9526367,-0.52441406,0.02746582,0.10455322,128
7.6141357,0.15258789,4.272461,0.042236328,-0.10961914,0.953125,-0.52441406,0.02746582,0.10455322,129
3.6621094,0.45776367,4.3029785,0.042236328,-0.109375,0.9519043,-0.52441406,0.025634766,0.10491943,130
3.8604736,0.19836426,4.333496,0.041992188,-0.109375,0.9519043,-0.52441406,0.025634766,0.10491943,131
3.540039,0.015258789,4.196167,0.042236328,-0.109375,0.9526367,-0.52441406,0.025634766,0.10491943,132
3.8146973,0.50354004,4.5928955,0.041259766,-0.10961914,0.9536133,-0.5233154,0.030029297,0.101623535,133
3.8146973,0.579834,4.2877197,0.041503906,-0.11010742,0.95288086,-0.5233154,0.030029297,0.101623535,134
3.753662,-0.2593994,4.4555664,0.042236328,-0.11035156,0.9526367,-0.5255127,0.025634766,0.10345459,135
4.562378,0.091552734,4.7302246,0.04248047,-0.10986328,0.95288086,-0.5255127,0.025634766,0.10345459,136
3.7231445,0.74768066,3.8909912,0.04248047,-0.11035156,0.95288086,-0.5255127,0.025634766,0.10345459,137
3.3416748,0.39672852,4.3182373,0.041992188,-0.10986328,0.95288086,-0.5247803,0.028564453,0.1038208,138
3.5705566,0.24414062,4.3640137,0.041748047,-0.10961914,0.9526367,-0.5247803,0.028564453,0.1038208,139
3.8604736,-0.076293945,4.6539307,0.041992188,-0.11035156,0.95288086,-0.5247803,0.028564453,0.09942627,140
4.119873,0.24414062,4.3640137,0.041503906,-0.10986328,0.95288086,-0.52441406,0.030029297,0.09942627,141
3.5858154,0.16784668,4.2266846,0.041259766,-0.11035156,0.9523926,-0.52441406,0.030029297,0.09942627,142
4.180908,0.5340576,4.3792725,0.041259766,-0.10913086,0.95214844,-0.5251465,0.025634766,0.101623535,143
4.348755,0.30517578,4.638672,0.041503906,-0.10913086,0.9526367,-0.5251465,0.025634766,0.101623535,144
3.692627,0.48828125,3.8452148,0.041748047,-0.109375,0.95288086,-0.5251465,0.025634766,0.101623535,145
3.616333,0.4119873,4.180908,0.041748047,-0.109375,0.9526367,-0.5229492,0.02709961,0.10272217,146
7.4920654,0.579834,4.3792725,0.041748047,-0.10986328,0.953125,-0.5229492,0.02709961,0.10272217,147
3.6468506,0.39672852,4.348755,0.041015625,-0.109375,0.9523926,-0.52368164,0.025268555,0.10491943,148
3.8146973,0.32043457,4.40979,0.041503906,-0.109375,0.95214844,-0.52368164,0.025268555,0.10491943,149
3.2196045,0.4272461,4.2266846,0.041259766,-0.10913086,0.95214844,-0.52368164,0.025268555,0.101989746,150
3.1585693,0.39672852,4.3792725,0.041748047,-0.10961914,0.95336914,-0.5258789,0.021972656,0.101989746,151
3.8909912,0.64086914,4.2877197,0.041992188,-0.109375,0.95288086,-0.5258789,0.021972656,0.101989746,152
3.8604736,0.12207031,4.486084,0.041992188,-0.109375,0.9526367,-0.52441406,0.024902344,0.105651855,153
3.829956,0.24414062,4.3792725,0.041992188,-0.10913086,0.9526367,-0.52441406,0.024902344,0.105651855,154
3.6621094,0.19836426,4.6844482,0.041992188,-0.109375,0.95214844,-0.52441406,0.024902344,0.105651855,155
4.119873,0.10681152,4.425049,0.041748047,-0.10913086,0.95214844,-0.5247803,0.025634766,0.10272217,156
3.4942627,0.48828125,4.348755,0.041503906,-0.109375,0.95214844,-0.5247803,0.025634766,0.10272217,157
3.5095215,0.6561279,4.3182373,0.041015625,-0.109375,0.95214844,-0.5233154,0.025634766,0.10015869,158
3.692627,-0.091552734,4.40979,0.041503906,-0.10913086,0.9519043,-0.5233154,0.025634766,0.10015869,159
3.7384033,0.015258789,4.4403076,0.041748047,-0.109375,0.95214844,-0.5233154,0.025634766,0.10015869,160
3.5552979,0.61035156,4.3792725,0.041259766,-0.10888672,0.9523926,-0.5233154,0.024902344,0.101623535,161
3.7078857,0.5493164,4.119873,0.041503906,-0.109375,0.9526367,-0.5233154,0.024902344,0.101623535,162
4.1046143,0.19836426,4.0740967,0.041015625,-0.10986328,0.95288086,-0.5247803,0.021972656,0.101623535,163
4.3029785,0.61035156,4.486084,0.041259766,-0.109375,0.953125,-0.5247803,0.021972656,0.101623535,165
3.9367676,0.32043457,4.5318604,0.041259766,-0.109375,0.9526367,-0.52441406,0.025634766,0.09942627,166
3.7231445,0.5493164,4.1046143,0.041015625,-0.10961914,0.95288086,-0.52441406,0.025634766,0.09942627,167
3.7841797,0.48828125,4.3792725,0.041259766,-0.109375,0.9526367,-0.5233154,0.025268555,0.1038208,168
3.9520264,0.16784668,4.7302246,0.041259766,-0.10961914,0.9523926,-0.5233154,0.025268555,0.1038208,169
4.3029785,0.091552734,4.333496,0.041015625,-0.10986328,0.9523926,-0.5233154,0.025268555,0.1038208,170
3.9367676,0.50354004,4.3792725,0.041259766,-0.10961914,0.953125,-0.5233154,0.023803711,0.1038208,171
3.6315918,0.2593994,4.547119,0.041015625,-0.10961914,0.9526367,-0.5233154,0.023803711,0.1038208,172
3.9672852,0.79345703,4.0283203,0.041259766,-0.10913086,0.9523926,-0.5258789,0.028930664,0.10455322,173
3.8146973,0.30517578,4.3182373,0.041259766,-0.10913086,0.95214844,-0.5258789,0.028930664,0.10455322,174
3.7078857,0.091552734,4.1503906,0.041259766,-0.10913086,0.9526367,-0.5258789,0.028930664,0.10455322,175
3.5552979,0.8544922,4.5166016,0.041015625,-0.10888672,0.953125,-0.52441406,0.024169922,0.105285645,176
3.40271,0.289917,4.1503906,0.041503906,-0.10888672,0.95336914,-0.52441406,0.024169922,0.105285645,177
3.326416,0.15258789,4.3182373,0.041259766,-0.10888672,0.95336914,-0.5233154,0.024536133,0.10491943,178
3.753662,0.44250488,0.2593994,0.041748047,-0.10986328,0.95336914,-0.5233154,0.024536133,0.10491943,179
3.768921,0.6713867,4.5318604,0.041503906,-0.10961914,0.95288086,-0.5233154,0.024536133,0.10491943,180
3.8146973,0.39672852,4.348755,0.041259766,-0.10913086,0.9523926,-0.52404785,0.025634766,0.105651855,181
3.5705566,0.045776367,4.0740967,0.041259766,-0.109375,0.95214844,-0.52404785,0.025634766,0.105651855,182
3.6315918,0.21362305,4.180908,0.040771484,-0.11010742,0.9519043,-0.52404785,0.024902344,0.10235596,183
3.8604736,0.44250488,4.2419434,0.040283203,-0.10986328,0.9523926,-0.52404785,0.024902344,0.10235596,184
3.8909912,0.091552734,4.486084,0.041259766,-0.10986328,0.9526367,-0.52404785,0.024902344,0.10235596,185
4.3945312,0.38146973,4.714966,0.041259766,-0.10913086,0.9519043,-0.5284424,0.0234375,0.105651855,186
3.40271,0.18310547,4.119873,0.041015625,-0.109375,0.9526367,-0.5284424,0.0234375,0.105651855,187
3.4179688,0.38146973,4.119873,0.041748047,-0.109375,0.9519043,-0.5284424,0.0234375,0.105651855,188
3.479004,0.5645752,4.348755,0.041259766,-0.11010742,0.9523926,-0.5255127,0.024536133,0.101623535,189
3.9367676,0.32043457,4.2877197,0.041015625,-0.10986328,0.9523926,-0.5255127,0.024536133,0.101623535,190
3.9215088,0.22888184,4.333496,0.040771484,-0.10913086,0.95214844,-0.5247803,0.024169922,0.10491943,191
3.6468506,0,4.348755,0.041015625,-0.109375,0.95214844,-0.5247803,0.024169922,0.10491943,192
3.7841797,0.045776367,4.501343,0.041503906,-0.109375,0.95288086,-0.5247803,0.024169922,0.10491943,193
3.540039,0.5493164,4.3945312,0.041503906,-0.10888672,0.95288086,-0.5258789,0.021606445,0.1038208,194
3.9978027,0.5340576,4.6081543,0.041503906,-0.10913086,0.95214844,-0.5258789,0.021606445,0.1038208,195
4.0740967,0.12207031,4.196167,0.040771484,-0.10888672,0.9519043,-0.5222168,0.026733398,0.101623535,196
4.058838,0.21362305,4.6844482,0.041015625,-0.109375,0.9526367,-0.5222168,0.026733398,0.101623535,198
3.9978027,0.091552734,4.3640137,0.040527344,-0.109375,0.9526367,-0.5233154,0.024169922,0.10015869,199
3.9520264,0.5187988,4.699707,0.041015625,-0.10888672,0.95288086,-0.5233154,0.024169922,0.10015869,200
3.7994385,0.4119873,4.043579,0.040771484,-0.10913086,0.95288086,-0.5222168,0.027832031,0.10345459,201
3.5858154,-0.12207031,4.2877197,0.041015625,-0.10913086,0.953125,-0.5222168,0.027832031,0.10345459,202
3.3569336,0.1373291,3.9520264,0.040771484,-0.10913086,0.953125,-0.5222168,0.027832031,0.10345459,203
3.7841797,0.33569336,4.211426,0.041259766,-0.10913086,0.9538574,-0.52075195,0.0234375,0.10821533,204
3.9672852,0.5340576,4.3945312,0.041015625,-0.10888672,0.95336914,-0.52075195,0.0234375,0.10821533,205
3.3874512,0.19836426,4.0130615,0.041748047,-0.10888672,0.953125,-0.522583,0.024902344,0.10418701,206
3.616333,-0.091552734,4.2266846,0.041748047,-0.10961914,0.95336914,-0.522583,0.024902344,0.10418701,207
3.8452148,0.289917,4.562378,0.041503906,-0.10913086,0.953125,-0.522583,0.024902344,0.10418701,208
3.8757324,0.4119873,4.547119,0.041259766,-0.10864258,0.9526367,-0.52404785,0.025634766,0.10015869,209
3.692627,0.2746582,4.1503906,0.041259766,-0.10864258,0.9526367,-0.52404785,0.025634766,0.10015869,210
2.960205,0.10681152,4.3945312,0.041503906,-0.10864258,0.95166016,-0.52404785,0.025634766,0.10601807,211
3.8604736,0.38146973,4.4403076,0.041015625,-0.10913086,0.9519043,-0.52404785,0.025634766,0.10601807,212
0.36621094,-0.10681152,4.547119,0.041259766,-0.109375,0.9519043,-0.52404785,0.025634766,0.10601807,213
3.8146973,0.32043457,4.196167,0.041259766,-0.109375,0.95214844,-0.5233154,0.024169922,0.105651855,214
3.5705566,0.39672852,4.501343,0.041015625,-0.10913086,0.95214844,-0.5233154,0.024169922,0.105651855,215
3.982544,0.22888184,4.699707,0.041015625,-0.10864258,0.95214844,-0.5247803,0.0234375,0.10601807,216
4.058838,0.24414062,4.501343,0.040771484,-0.10888672,0.95214844,-0.5247803,0.0234375,0.10601807,217
2.9907227,0.061035156,4.4403076,0.040771484,-0.10888672,0.9526367,-0.5247803,0.0234375,0.10601807,218
4.135132,0.289917,4.3640137,0.040771484,-0.10913086,0.9526367,-0.52734375,0.024536133,0.1104126,219
3.6621094,0.4272461,4.4555664,0.041015625,-0.10913086,0.9526367,-0.52734375,0.024536133,0.1104126,220
3.9215088,0.22888184,4.3945312,0.040527344,-0.10913086,0.9523926,-0.5233154,0.025268555,0.10345459,221
4.043579,0.47302246,4.0283203,0.040771484,-0.10913086,0.9523926,-0.5233154,0.025268555,0.10345459,222
3.8757324,0.12207031,4.4403076,0.041015625,-0.10913086,0.9523926,-0.5233154,0.025268555,0.10345459,223
3.6010742,0.50354004,4.4555664,0.040283203,-0.10913086,0.9538574,-0.5266113,0.026367188,0.10638428,225
3.5095215,0.7019043,4.3029785,0.040527344,-0.109375,0.953125,-0.5266113,0.024169922,0.10235596,226
3.8757324,0.16784668,4.2877197,0.040527344,-0.10961914,0.9523926,-0.522583,0.024169922,0.10235596,227
3.6315918,-0.22888184,4.486084,0.040771484,-0.109375,0.9526367,-0.522583,0.024169922,0.10235596,228
4.1046143,0.33569336,4.3182373,0.040527344,-0.10986328,0.95288086,-0.52404785,0.027832031,0.10455322,229
3.8757324,0.33569336,3.8604736,0.041015625,-0.10986328,0.95288086,-0.52404785,0.027832031,0.10455322,230
3.692627,-0.045776367,4.5318604,0.041015625,-0.10961914,0.95288086,-0.52404785,0.025268555,0.101989746,231
3.1738281,0.61035156,4.0283203,0.041259766,-0.109375,0.95288086,-0.52368164,0.025268555,0.101989746,232
4.0283203,0.47302246,4.486084,0.041015625,-0.10961914,0.95336914,-0.52368164,0.025268555,0.101989746,233
3.5095215,0.19836426,4.348755,0.041259766,-0.10986328,0.9526367,-0.52368164,0.026367188,0.10675049,234
3.9520264,0.015258789,4.257202,0.041503906,-0.10986328,0.9526367,-0.52368164,0.026367188,0.10675049,235
3.540039,0.35095215,4.470825,0.041748047,-0.10986328,0.95336914,-0.52368164,0.026367188,0.10675049,236
3.8757324,0.33569336,4.6081543,0.041259766,-0.11010742,0.95288086,-0.52404785,0.027832031,0.10638428,237
3.9215088,-0.1373291,4.4555664,0.041259766,-0.11010742,0.9523926,-0.52404785,0.027832031,0.10638428,238
3.8909912,0.45776367,4.5166016,0.041015625,-0.10961914,0.95214844,-0.5247803,0.025268555,0.10748291,239
4.058838,0.12207031,4.211426,0.040771484,-0.10913086,0.951416,-0.5247803,0.025268555,0.10748291,240
3.692627,0.18310547,4.562378,0.040771484,-0.109375,0.9519043,-0.5247803,0.025268555,0.10748291,241
3.6468506,0.076293945,4.119873,0.041015625,-0.109375,0.95214844,-0.522583,0.022338867,0.108947754,242
3.7994385,0.45776367,4.257202,0.040771484,-0.10961914,0.95214844,-0.522583,0.022338867,0.108947754,243
3.753662,0.30517578,4.3945312,0.041015625,-0.10888672,0.9523926,-0.5214844,0.023803711,0.10601807,244
4.2877197,0.35095215,4.5166016,0.041259766,-0.10888672,0.95214844,-0.5214844,0.023803711,0.10601807,245
3.7994385,-0.061035156,4.425049,0.041503906,-0.10961914,0.9526367,-0.5214844,0.023803711,0.10601807,246
3.540039,0.36621094,4.3792725,0.041015625,-0.10986328,0.9526367,-0.5284424,0.022338867,0.10675049,247
3.540039,0.24414062,4.0740967,0.040527344,-0.10986328,0.953125,-0.5284424,0.022338867,0.10675049,248
3.6010742,0.7324219,4.1503906,0.041259766,-0.10961914,0.9536133,-0.5262451,0.028564453,0.10601807,249
3.90625,0.76293945,4.2266846,0.040527344,-0.10913086,0.953125,-0.5262451,0.028564453,0.10601807,250
4.0130615,0.18310547,4.3792725,0.041015625,-0.10888672,0.95214844,-0.5262451,0.028564453,0.10601807,251
3.7384033,-0.22888184,4.3792725,0.040771484,-0.109375,0.9519043,-0.52038574,0.026000977,0.10638428,252
3.829956,0.24414062,4.2877197,0.040771484,-0.10961914,0.9526367,-0.52038574,0.026000977,0.10638428,253
4.333496,0.44250488,4.562378,0.040527344,-0.10961914,0.95336914,-0.52441406,0.024902344,0.1071167,254
3.5858154,0.8087158,4.3945312,0.040527344,-0.109375,0.95288086,-0.52441406,0.024902344,0.1071167,255
3.5705566,0.091552734,4.196167,0.040527344,-0.10888672,0.95166016,-0.52441406,0.024902344,0.1071167,0
3.9367676,0.2746582,4.2877197,0.040527344,-0.10864258,0.95214844,-0.5229492,0.023803711,0.10601807,1
3.90625,0.47302246,4.3029785,0.040527344,-0.109375,0.953125,-0.5229492,0.023803711,0.10601807,2
3.9367676,0.289917,4.638672,0.040527344,-0.10888672,0.95166016,-0.5218506,0.025268555,0.10418701,3
4.1046143,0.12207031,4.5928955,0.040771484,-0.10888672,0.95214844,-0.5218506,0.025268555,0.10418701,4
3.5095215,0.32043457,4.714966,0.040527344,-0.10888672,0.95214844,-0.5218506,0.025268555,0.10418701,5
4.196167,0.045776367,4.196167,0.041259766,-0.109375,0.9519043,-0.5233154,0.023803711,0.10272217,6
3.768921,-0.061035156,4.257202,0.040771484,-0.109375,0.9526367,-0.5233154,0.023803711,0.10272217,7
3.9215088,0.4119873,4.40979,0.039794922,-0.10913086,0.9526367,-0.52441406,0.022705078,0.09942627,8
3.5858154,0.4272461,4.6081543,0.039794922,-0.10913086,0.9523926,-0.52441406,0.022705078,0.09942627,9
3.7841797,0.45776367,4.2877197,0.040283203,-0.10864258,0.9519043,-0.52441406,0.022705078,0.09942627,10
3.753662,0,4.5776367,0.040527344,-0.10864258,0.9523926,-0.5262451,0.02709961,0.10235596,11
7.797241,0.2593994,4.2266846,0.040771484,-0.10961914,0.9526367,-0.52368164,0.024536133,0.1038208,14
3.250122,0.45776367,3.7994385,0.040283203,-0.109375,0.9526367,-0.52404785,0.023803711,0.101623535,17
3.8452148,0.33569336,4.7302246,0.041015625,-0.109375,0.9523926,-0.52404785,0.024169922,0.101623535,18
3.9672852,0.5950928,4.623413,0.040527344,-0.10913086,0.95288086,-0.522583,0.024169922,0.101623535,20
3.4179688,0.1373291,4.6081543,0.039794922,-0.10839844,0.95288086,-0.5192871,0.026733398,0.101257324,21
3.8757324,0.76293945,4.333496,0.039794922,-0.10864258,0.95288086,-0.5192871,0.026733398,0.101257324,22
4.0283203,0.5493164,4.40979,0.040283203,-0.10864258,0.9526367,-0.5192871,0.024536133,0.10272217,23
3.3874512,0.1373291,3.8604736,0.040283203,-0.10888672,0.95214844,-0.522583,0.024536133,0.10272217,24
4.135132,0.061035156,4.4555664,0.040283203,-0.10913086,0.9526367,-0.522583,0.024536133,0.10272217,25
4.058838,0.5187988,3.90625,0.040527344,-0.10888672,0.95336914,-0.5255127,0.02746582,0.10455322,26
3.7078857,0.7324219,4.135132,0.040527344,-0.10888672,0.9526367,-0.5255127,0.02746582,0.10455322,27
4.3945312,0.50354004,4.272461,0.041015625,-0.10888672,0.9526367,-0.5255127,0.02746582,0.10455322,28
3.8146973,0.21362305,4.470825,0.040771484,-0.10961914,0.95288086,-0.5222168,0.024169922,0.109313965,29
4.211426,0.50354004,4.5318604,0.040527344,-0.10986328,0.9526367,-0.5222168,0.024169922,0.109313965,30
3.616333,0.47302246,4.1503906,0.040527344,-0.10913086,0.9523926,-0.5214844,0.025268555,0.097229004,31
3.90625,0.045776367,4.7302246,0.040527344,-0.10888672,0.9526367,-0.5214844,0.025268555,0.097229004,32
3.5552979,0.2593994,0.061035156,0.040527344,-0.10864258,0.9526367,-0.5214844,0.025268555,0.097229004,33
3.5552979,0.10681152,4.501343,0.040283203,-0.10888672,0.9526367,-0.5181885,0.026367188,0.09979248,34
3.3111572,0.47302246,4.257202,0.040771484,-0.109375,0.95288086,-0.5181885,0.026367188,0.09979248,35
3.9672852,0.16784668,4.3792725,0.041015625,-0.109375,0.953125,-0.52075195,0.027832031,0.10235596,36
3.768921,0.2746582,4.425049,0.040527344,-0.10888672,0.9536133,-0.52075195,0.027832031,0.10235596,37
3.6773682,0.4119873,4.272461,0.040771484,-0.10913086,0.9523926,-0.52075195,0.027832031,0.10235596,38
4.043579,0.289917,4.272461,0.041015625,-0.10913086,0.95214844,-0.5222168,0.022338867,0.09869385,39
3.7384033,0.18310547,4.2419434,0.040283203,-0.109375,0.95214844,-0.5222168,0.022338867,0.09869385,40
3.8452148,0.36621094,4.272461,0.040039062,-0.10961914,0.9519043,-0.52368164,0.025634766,0.10272217,41
3.4332275,0.47302246,3.8909912,0.040283203,-0.10913086,0.9523926,-0.52368164,0.025634766,0.10272217,42
3.9215088,0.38146973,4.043579,0.040527344,-0.10913086,0.95288086,-0.52368164,0.025634766,0.10272217,43
3.4179688,0.35095215,4.348755,0.040527344,-0.10913086,0.953125,-0.5280762,0.0234375,0.101623535,44
3.8909912,0.19836426,4.623413,0.040527344,-0.10888672,0.953125,-0.5280762,0.0234375,0.101623535,45
4.0283203,0.61035156,4.180908,0.040527344,-0.10961914,0.953125,-0.52404785,0.027832031,0.101623535,46
3.616333,0.44250488,4.196167,0.040771484,-0.10986328,0.953125,-0.52404785,0.027832031,0.101623535,47
4.043579,0.5645752,4.5166016,0.040771484,-0.10986328,0.953125,-0.52404785,0.027832031,0.101623535,48
3.8757324,0.30517578,4.272461,0.040039062,-0.10961914,0.95288086,-0.52404785,0.02709961,0.10015869,49
3.768921,0.22888184,4.3640137,0.040283203,-0.10913086,0.95288086,-0.52404785,0.02709961,0.10015869,50
3.3416748,0.38146973,4.1503906,0.040039062,-0.10888672,0.9526367,-0.52368164,0.025634766,0.10491943,51
3.8757324,0.289917,4.211426,0.040283203,-0.10913086,0.953125,-0.52368164,0.025634766,0.10491943,52
3.90625,0.061035156,4.333496,0.040771484,-0.10913086,0.953125,-0.52368164,0.025634766,0.10491943,53
3.2958984,0.35095215,4.257202,0.040527344,-0.10913086,0.95336914,-0.5255127,0.02746582,0.101257324,54
3.7994385,0.62561035,4.1503906,0.040771484,-0.10913086,0.95288086,-0.5255127,0.02746582,0.101257324,55
3.4484863,0.44250488,4.0283203,0.040527344,-0.10913086,0.9523926,-0.52404785,0.02709961,0.09869385,56
3.768921,0.289917,4.257202,0.040283203,-0.10913086,0.95214844,-0.52404785,0.02709961,0.09869385,57
3.3569336,0.15258789,4.2419434,0.039794922,-0.109375,0.95214844,-0.52404785,0.02709961,0.09869385,58
0.12207031,0.5187988,4.3945312,0.040527344,-0.10961914,0.95214844,-0.5233154,0.026367188,0.101623535,59
3.6773682,0.24414062,4.3182373,0.040527344,-0.10888672,0.9523926,-0.5233154,0.026367188,0.101623535,60
3.3569336,-0.030517578,4.333496,0.041259766,-0.10864258,0.9523926,-0.52404785,0.027832031,0.1038208,61
4.058838,0.045776367,4.40979,0.040527344,-0.10888672,0.9523926,-0.52404785,0.027832031,0.1038208,62
4.0740967,-0.045776367,4.547119,0.041015625,-0.10913086,0.9526367,-0.52404785,0.027832031,0.1038208,63
3.5552979,-0.045776367,4.547119,0.040039062,-0.109375,0.9526367,-0.5214844,0.026000977,0.10308838,65
3.5095215,0.5187988,4.272461,0.040283203,-0.109375,0.953125,-0.5214844,0.026000977,0.1005249,66
7.659912,0.12207031,4.4403076,0.040039062,-0.109375,0.95288086,-0.5214844,0.02709961,0.1005249,67
3.829956,0.32043457,4.6539307,0.039794922,-0.10913086,0.9536133,-0.5214844,0.02709961,0.1005249,68
3.753662,0.289917,4.6691895,0.03930664,-0.10864258,0.953125,-0.52111816,0.024536133,0.09869385,69
3.3874512,0.22888184,4.3640137,0.03955078,-0.10888672,0.953125,-0.52111816,0.024536133,0.09869385,70
3.5705566,-0.045776367,4.2877197,0.040039062,-0.10961914,0.9526367,-0.52111816,0.030029297,0.1005249,71
3.1433105,0.289917,4.2266846,0.03955078,-0.10961914,0.9519043,-0.52441406,0.030029297,0.1005249,72
3.7841797,0.32043457,4.348755,0.03955078,-0.10888672,0.9519043,-0.52441406,0.030029297,0.1005249,73
4.043579,0.030517578,4.3792725,0.039794922,-0.10913086,0.9523926,-0.5229492,0.025634766,0.10015869,74
3.8909912,0.19836426,4.562378,0.040039062,-0.10913086,0.9523926,-0.5229492,0.025634766,0.10015869,75
3.8757324,0.33569336,4.547119,0.03930664,-0.10888672,0.95288086,-0.522583,0.025634766,0.097595215,77
3.9367676,0.18310547,4.2266846,0.03930664,-0.10888672,0.95288086,-0.522583,0.025634766,0.097595215,78
3.6468506,0.5340576,4.40979,0.039794922,-0.10864258,0.95336914,-0.5229492,0.026367188,0.101623535,79
4.0893555,0,4.2266846,0.040527344,-0.109375,0.95288086,-0.5229492,0.026367188,0.101623535,80
3.6621094,0.6561279,4.272461,0.040771484,-0.10913086,0.953125,-0.5229492,0.026367188,0.101623535,81
3.753662,0.76293945,4.8065186,0.040283203,-0.10888672,0.95336914,-0.52111816,0.029663086,0.101257324,82
3.982544,0.45776367,4.0130615,0.040039062,-0.10839844,0.953125,-0.52111816,0.029663086,0.101257324,83
3.982544,-0.2746582,4.547119,0.040527344,-0.109375,0.953125,-0.5214844,0.024536133,0.101257324,86
3.9215088,0.74768066,4.5928955,0.040039062,-0.10888672,0.95288086,-0.52441406,0.025268555,0.09942627,87
0.030517578,0.39672852,4.2266846,0.039794922,-0.10839844,0.95214844,-0.52441406,0.025268555,0.09942627,88
3.9367676,0.4272461,4.119873,0.03955078,-0.10888672,0.9523926,-0.52001953,0.027832031,0.10455322,89
3.9672852,0.24414062,4.135132,0.039794922,-0.10961914,0.95288086,-0.52001953,0.027832031,0.10455322,90
3.9672852,-0.15258789,4.3182373,0.039794922,-0.10961914,0.95288086,-0.52001953,0.027832031,0.10455322,91
3.40271,0.74768066,3.8757324,0.039794922,-0.10888672,0.9523926,-0.5266113,0.026367188,0.10308838,92
3.7231445,0.45776367,4.425049,0.040039062,-0.10839844,0.95214844,-0.5266113,0.026367188,0.10308838,93
3.829956,-0.015258789,4.4555664,0.040283203,-0.10839844,0.95166016,-0.5229492,0.029296875,0.1038208,94
3.7841797,-0.36621094,4.5166016,0.040527344,-0.10888672,0.95166016,-0.5229492,0.029296875,0.1038208,95
3.7078857,0.16784668,4.3182373,0.040039062,-0.10888672,0.9519043,-0.5229492,0.029296875,0.1038208,96
4.257202,0.76293945,4.623413,0.040039062,-0.10888672,0.9526367,-0.52075195,0.02746582,0.101257324,97
3.4179688,0.33569336,4.2266846,0.040039062,-0.10864258,0.95214844,-0.52075195,0.02746582,0.101257324,98
3.5552979,0.19836426,4.760742,0.03955078,-0.10888672,0.95214844,-0.522583,0.026367188,0.1005249,99
3.4179688,-0.091552734,3.9978027,0.039794922,-0.10913086,0.9523926,-0.522583,0.026367188,0.1005249,100
0,0.48828125,4.714966,0.03955078,-0.10913086,0.9523926,-0.522583,0.026367188,0.1005249,101
3.9672852,0.39672852,4.547119,0.039794922,-0.109375,0.9526367,-0.522583,0.026733398,0.10455322,102
3.6315918,0.33569336,3.9520264,0.039794922,-0.10913086,0.9523926,-0.522583,0.026733398,0.10455322,103
3.479004,-0.10681152,4.3640137,0.03955078,-0.109375,0.9526367,-0.5214844,0.026367188,0.10089111,104
3.829956,3.829956,4.837036,0.03930664,-0.10913086,0.953125,-0.5214844,0.026367188,0.10089111,105
4.1656494,0.30517578,4.257202,0.03930664,-0.10864258,0.95288086,-0.52038574,0.027832031,0.10491943,107
3.753662,0.5645752,3.982544,0.03955078,-0.10888672,0.9526367,-0.52038574,0.027832031,0.10491943,108
3.2806396,0.32043457,4.0893555,0.040039062,-0.109375,0.953125,-0.52038574,0.028930664,0.10858154,109
3.8909912,0.30517578,4.638672,0.03955078,-0.109375,0.9523926,-0.5189209,0.028930664,0.10858154,110
4.1046143,0.44250488,4.486084,0.039794922,-0.10913086,0.95288086,-0.5189209,0.028930664,0.10858154,111
3.8452148,0.21362305,4.425049,0.03955078,-0.109375,0.95214844,-0.5192871,0.026367188,0.10491943,112
3.982544,0.061035156,4.272461,0.03930664,-0.109375,0.95214844,-0.5192871,0.026367188,0.10491943,113
3.4484863,0.39672852,3.9215088,0.03930664,-0.10888672,0.9526367,-0.5192871,0.026367188,0.09942627,114
3.4942627,0.579834,4.3029785,0.040039062,-0.10888672,0.95288086,-0.5233154,0.025268555,0.09942627,115
3.7384033,0.5950928,4.2419434,0.040039062,-0.10864258,0.95214844,-0.5233154,0.025268555,0.09942627,116
4.0893555,0.19836426,4.4403076,0.040283203,-0.10913086,0.9523926,-0.52404785,0.025634766,0.1038208,117
4.0740967,0.22888184,4.3182373,0.040039062,-0.109375,0.9526367,-0.52404785,0.025634766,0.1038208,118
3.1280518,0.16784668,4.119873,0.03930664,-0.10961914,0.95288086,-0.52404785,0.026000977,0.10308838,119
3.3416748,0.44250488,4.3792725,0.03930664,-0.109375,0.953125,-0.5251465,0.026000977,0.10308838,120
3.3416748,0.50354004,4.776001,0.039794922,-0.10913086,0.9526367,-0.5251465,0.026000977,0.10308838,121
4.2266846,0.19836426,4.562378,0.03955078,-0.109375,0.95288086,-0.52075195,0.02709961,0.10345459,122
3.6773682,-0.030517578,4.1046143,0.03930664,-0.109375,0.9526367,-0.52075195,0.02709961,0.10345459,123
3.9367676,0.36621094,4.562378,0.040039062,-0.10888672,0.9526367,-0.52075195,0.02709961,0.10345459,124
3.6773682,0.5645752,4.470825,0.040039062,-0.109375,0.95288086,-0.5222168,0.025268555,0.10235596,125
3.9215088,0.48828125,3.7994385,0.040039062,-0.109375,0.95288086,-0.5222168,0.025268555,0.10235596,126
3.3874512,0.47302246,4.180908,0.03881836,-0.109375,0.9519043,-0.5222168,0.02709961,0.1038208,127
3.753662,-3.829956,4.776001,0.03881836,-0.109375,0.95214844,-0.5222168,0.02709961,0.1038208,128
3.8604736,0.21362305,4.6539307,0.03881836,-0.10888672,0.95214844,-0.5222168,0.02709961,0.1038208,129
3.1433105,0.24414062,4.2419434,0.0390625,-0.10864258,0.9523926,-0.522583,0.024169922,0.101989746,130
3.3721924,0.39672852,4.4555664,0.0390625,-0.10864258,0.9519043,-0.522583,0.024169922,0.101989746,131
3.2043457,0.2746582,4.333496,0.03857422,-0.10913086,0.9519043,-0.52111816,0.023071289,0.1038208,132
3.6773682,0.5340576,4.40979,0.03857422,-0.10888672,0.95214844,-0.52111816,0.023071289,0.1038208,133
3.7994385,0.21362305,4.3792725,0.03881836,-0.10864258,0.9526367,-0.52111816,0.023071289,0.1038208,134
3.9978027,0.32043457,4.3792725,0.0390625,-0.10888672,0.953125,-0.52368164,0.026733398,0.09906006,135
3.5552979,0.35095215,4.425049,0.03955078,-0.10864258,0.95336914,-0.52368164,0.026733398,0.09906006,136
3.8452148,0.30517578,4.470825,0.03955078,-0.10864258,0.95288086,-0.522583,0.022705078,0.10418701,137
3.7994385,0.289917,4.043579,0.03930664,-0.107910156,0.95288086,-0.522583,0.022705078,0.10418701,138
3.6773682,0.030517578,4.196167,0.03930664,-0.10864258,0.95214844,-0.5262451,0.025634766,0.105651855,140
3.3569336,0.12207031,4.1656494,0.03930664,-0.10864258,0.9523926,-0.5262451,0.025634766,0.105651855,141
3.692627,0.16784668,4.257202,0.0390625,-0.10839844,0.9526367,-0.52441406,0.024902344,0.10455322,142
0.091552734,0.47302246,4.3182373,0.03857422,-0.1081543,0.9523926,-0.52441406,0.024902344,0.10455322,143
3.982544,0.19836426,4.272461,0.0390625,-0.10839844,0.9519043,-0.52441406,0.024902344,0.10455322,144
3.6773682,0.1373291,3.90625,0.03930664,-0.10888672,0.95166016,-0.5218506,0.026367188,0.10272217,145
3.9367676,0.44250488,4.5318604,0.0390625,-0.10888672,0.95214844,-0.5218506,0.026367188,0.10272217,146
3.829956,-0.1373291,4.5166016,0.03930664,-0.10864258,0.9523926,-0.52111816,0.024169922,0.1005249,147
0.091552734,0.1373291,4.058838,0.03930664,-0.10864258,0.9523926,-0.52111816,0.024169922,0.1005249,148
3.7841797,0.38146973,4.2419434,0.03955078,-0.10888672,0.95214844,-0.52111816,0.024169922,0.1005249,149
3.5705566,0.19836426,4.3792725,0.03930664,-0.10888672,0.95288086,-0.5229492,0.027832031,0.10089111,150
3.463745,0.16784668,4.1656494,0.03881836,-0.10913086,0.9523926,-0.5229492,0.027832031,0.10089111,151
4.1503906,-0.19836426,4.470825,0.0390625,-0.10913086,0.9526367,-0.5258789,0.025268555,0.09906006,152
4.257202,0.15258789,4.501343,0.03881836,-0.10839844,0.9526367,-0.5258789,0.025268555,0.09906006,153
2.9907227,0.5950928,4.211426,0.03930664,-0.10839844,0.95214844,-0.5258789,0.025268555,0.09906006,154
3.982544,0.39672852,4.5318604,0.03881836,-0.10888672,0.9526367,-0.5222168,0.026367188,0.10638428,155
3.768921,0.5645752,4.3182373,0.03857422,-0.10864258,0.95288086,-0.5222168,0.026367188,0.10638428,156
3.90625,0.10681152,4.623413,0.0390625,-0.10839844,0.9523926,-0.5222168,0.025634766,0.10784912,157
3.9367676,-0.091552734,4.272461,0.03955078,-0.10888672,0.95214844,-0.5192871,0.025634766,0.10784912,158
3.7078857,0.4272461,4.1046143,0.03955078,-0.10888672,0.95288086,-0.5192871,0.025634766,0.10784912,159
3.7841797,0.15258789,4.5318604,0.03930664,-0.10888672,0.95288086,-0.522583,0.025634766,0.11260986,160
3.5095215,0.33569336,4.2419434,0.03930664,-0.10864258,0.953125,-0.522583,0.025634766,0.11260986,161
3.7231445,0.1373291,4.5166016,0.03930664,-0.10839844,0.95214844,-0.522583,0.025634766,0.11260986,162
3.4179688,0.061035156,4.058838,0.03930664,-0.10888672,0.9523926,-0.52368164,0.026000977,0.10858154,163
3.4484863,0.39672852,4.196167,0.03930664,-0.10913086,0.9526367,-0.52368164,0.026000977,0.10858154,164
4.2266846,0.579834,4.8675537,0.0390625,-0.10864258,0.953125,-0.5233154,0.026733398,0.10418701,165
4.1503906,0.061035156,4.3792725,0.0390625,-0.10864258,0.9523926,-0.5233154,0.026733398,0.10418701,166
3.7841797,0.33569336,4.5166016,0.0390625,-0.10961914,0.9526367,-0.5233154,0.026733398,0.01373291,167
3.4179688,0.076293945,4.3029785,0.0390625,-0.10961914,0.9526367,-0.52111816,0.03112793,0.10748291,168
7.736206,-0.015258789,4.699707,0.0390625,-0.10961914,0.9526367,-0.52111816,0.03112793,0.10748291,169
3.616333,0.19836426,4.058838,0.0390625,-0.10888672,0.95214844,-0.5218506,0.026733398,0.1038208,170
4.3945312,0.19836426,4.714966,0.0390625,-0.10864258,0.9523926,-0.5218506,0.026733398,0.1038208,171
3.8909912,-0.1373291,4.348755,0.03955078,-0.10839844,0.95214844,-0.5218506,0.026733398,0.1038208,172
3.9367676,0.22888184,4.3029785,0.03930664,-0.10864258,0.9523926,-0.52038574,0.026733398,0.10601807,173
3.1585693,0.47302246,3.7841797,0.03881836,-0.10888672,0.95288086,-0.52038574,0.026733398,0.10601807,174
3.616333,0.5493164,4.3640137,0.03881836,-0.10839844,0.9523926,-0.5214844,0.025634766,0.10235596,175
3.6773682,0.1373291,4.3182373,0.0390625,-0.10864258,0.95288086,-0.5214844,0.025634766,0.10235596,176
3.5705566,-0.061035156,4.211426,0.0390625,-0.10888672,0.95288086,-0.5214844,0.025634766,0.10235596,177
3.9978027,0.289917,4.5318604,0.03930664,-0.10913086,0.95336914,-0.52038574,0.029296875,0.10308838,178
3.4484863,0.47302246,4.0740967,0.03955078,-0.10913086,0.9526367,-0.52038574,0.029296875,0.10308838,179
4.0893555,-0.045776367,4.5928955,0.0390625,-0.10913086,0.95336914,-0.5218506,0.026367188,0.10089111,180
3.3416748,0.22888184,4.0740967,0.03881836,-0.10888672,0.953125,-0.5218506,0.026367188,0.10089111,181
4.058838,0.579834,4.0893555,0.03881836,-0.10864258,0.95288086,-0.5218506,0.026367188,0.10089111,182
4.3029785,0.091552734,4.547119,0.03857422,-0.10839844,0.9523926,-0.5218506,0.026733398,0.1038208,183
3.5095215,0.50354004,4.470825,0.038085938,-0.10864258,0.9526367,-0.5218506,0.026733398,0.1038208,184
3.3569336,0.7019043,3.9215088,0.038330078,-0.10839844,0.9526367,-0.5255127,0.028198242,0.101623535,185
3.616333,0.22888184,4.425049,0.03881836,-0.10839844,0.9523926,-0.5255127,0.028198242,0.101623535,186
4.1503906,0.44250488,4.0130615,0.03857422,-0.1081543,0.9526367,-0.5255127,0.028198242,0.101623535,187
3.8757324,0.22888184,4.714966,0.03881836,-0.10839844,0.9523926,-0.5192871,0.028198242,0.10235596,188
3.8452148,0.18310547,4.1046143,0.03857422,-0.10888672,0.9523926,-0.5192871,0.028198242,0.10235596,189
3.616333,0,4.3182373,0.03881836,-0.10888672,0.9526367,-0.5222168,0.027832031,0.105651855,190
4.8217773,0.289917,4.6539307,0.03881836,-0.10888672,0.9526367,-0.5222168,0.027832031,0.105651855,191
3.7841797,-0.091552734,4.6081543,0.03881836,-0.10864258,0.9523926,-0.5222168,0.027832031,0.105651855,192
3.753662,0.36621094,4.1503906,0.038085938,-0.10839844,0.9526367,-0.5218506,0.024169922,0.09942627,197
0.2746582,-0.16784668,4.7454834,0.038330078,-0.10839844,0.95288086,-0.5189209,0.026733398,0.09906006,198
4.180908,0.2746582,4.699707,0.03857422,-0.1081543,0.95336914,-0.5189209,0.026733398,0.09906006,199
3.2653809,0.12207031,4.0893555,0.03857422,-0.1081543,0.9536133,-0.5233154,0.027832031,0.09906006,200
3.6773682,-0.4119873,7.7667236,0.03857422,-0.10839844,0.95288086,-0.5233154,0.027832031,0.09906006,201
3.7994385,0.030517578,4.989624,0.03881836,-0.10864258,0.95288086,-0.5233154,0.027832031,0.09906006,202
4.1046143,0.5340576,4.3640137,0.03857422,-0.10864258,0.9526367,-0.5229492,0.025268555,0.10015869,203
3.90625,0.061035156,4.501343,0.03881836,-0.10839844,0.9523926,-0.5229492,0.025268555,0.10015869,204
3.7231445,-0.2746582,4.1656494,0.0390625,-0.10864258,0.9526367,-0.5229492,0.025268555,0.101257324,205
3.9672852,0.38146973,4.6539307,0.0390625,-0.10864258,0.953125,-0.5247803,0.02746582,0.101257324,206
3.4179688,0.5493164,3.829956,0.03881836,-0.10913086,0.95336914,-0.5247803,0.02746582,0.101257324,207
3.8452148,0.18310547,4.2877197,0.0390625,-0.10888672,0.9526367,-0.5218506,0.025268555,0.10418701,208
4.2266846,0.12207031,4.8065186,0.03857422,-0.10888672,0.953125,-0.5218506,0.025268555,0.10418701,209
4.1503906,0.21362305,4.8217773,0.037841797,-0.10888672,0.95336914,-0.5222168,0.026000977,0.10345459,212
3.9367676,0.15258789,4.562378,0.037841797,-0.10888672,0.95336914,-0.5251465,0.026733398,0.10308838,213
3.8604736,0.7171631,4.4555664,0.038085938,-0.109375,0.953125,-0.5251465,0.026733398,0.10308838,214
4.3945312,-3.8452148,4.6081543,0.03857422,-0.109375,0.95336914,-0.5251465,0.026733398,0.10308838,215
3.2806396,0.16784668,4.257202,0.037841797,-0.109375,0.9536133,-0.5196533,0.02709961,0.10418701,216
3.5247803,0.39672852,4.333496,0.037841797,-0.10913086,0.953125,-0.5196533,0.02709961,0.10418701,217
3.9215088,0.39672852,4.3792725,0.038330078,-0.10913086,0.953125,-0.52368164,0.024169922,0.10418701,218
0.061035156,0.19836426,4.1046143,0.0390625,-0.10888672,0.9526367,-0.52368164,0.024169922,0.10418701,219
3.8146973,0.30517578,4.40979,0.03881836,-0.10913086,0.95336914,-0.52368164,0.024169922,0.10418701,220
3.8604736,0.32043457,4.1046143,0.038330078,-0.10888672,0.95288086,-0.5266113,0.026733398,0.10089111,221
3.8604736,0.2746582,4.40979,0.03881836,-0.109375,0.95336914,-0.5266113,0.026733398,0.10089111,222
3.692627,0.38146973,4.180908,0.038330078,-0.10913086,0.953125,-0.5214844,0.02709961,0.10272217,223
3.692627,0.045776367,4.333496,0.03857422,-0.10888672,0.953125,-0.5214844,0.02709961,0.10272217,224
3.6468506,0.64086914,4.348755,0.03881836,-0.10864258,0.9523926,-0.5214844,0.02709961,0.10272217,225
4.0283203,0.16784668,4.1046143,0.03857422,-0.10888672,0.9526367,-0.5229492,0.028930664,0.1038208,226
4.196167,0.16784668,4.638672,0.03857422,-0.10864258,0.9523926,-0.5229492,0.028930664,0.1038208,227
3.768921,0.38146973,4.40979,0.038330078,-0.10864258,0.9526367,-0.52368164,0.025268555,0.09906006,228
0.21362305,0.36621094,4.272461,0.03857422,-0.10864258,0.95288086,-0.52368164,0.025268555,0.09906006,229
3.7841797,0.12207031,4.3029785,0.038330078,-0.10864258,0.95288086,-0.52368164,0.025268555,0.09906006,230
3.9367676,0.24414062,4.333496,0.038085938,-0.1081543,0.9526367,-0.52404785,0.026733398,0.09906006,231
3.6010742,0.61035156,4.6691895,0.038085938,-0.10839844,0.953125,-0.52404785,0.026733398,0.09906006,232
3.768921,0.091552734,4.2877197,0.038330078,-0.10839844,0.9526367,-0.52111816,0.025268555,0.09979248,233
4.180908,0.33569336,4.211426,0.037841797,-0.10913086,0.9526367,-0.52111816,0.025268555,0.09979248,234
3.463745,0.50354004,4.1656494,0.037841797,-0.10888672,0.9526367,-0.52111816,0.025268555,0.09979248,235
4.3029785,0.47302246,4.3640137,0.038085938,-0.10839844,0.9523926,-0.5192871,0.026000977,0.105285645,236
3.6773682,-0.061035156,4.257202,0.038330078,-0.10913086,0.9523926,-0.5192871,0.026000977,0.105285645,237
3.8909912,-0.015258789,4.257202,0.03857422,-0.10888672,0.9523926,-0.5185547,0.024536133,0.11004639,238
3.8909912,-0.1373291,4.638672,0.038085938,-0.10888672,0.9523926,-0.5185547,0.024536133,0.11004639,239
4.0130615,0.21362305,4.272461,0.038085938,-0.10913086,0.9523926,-0.5185547,0.024536133,0.11004639,240
4.0283203,0.22888184,4.211426,0.038330078,-0.10913086,0.9523926,-0.52075195,0.021972656,0.105285645,241
3.6010742,0.10681152,4.2877197,0.038085938,-0.109375,0.953125,-0.52075195,0.021972656,0.105285645,242
3.90625,0.289917,4.7302246,0.038330078,-0.10888672,0.9519043,-0.52111816,0.024536133,0.10601807,243
3.8909912,0.22888184,4.5166016,0.038085938,-0.10839844,0.9523926,-0.52111816,0.024536133,0.10601807,244
4.0893555,0.12207031,4.547119,0.038085938,-0.10888672,0.95214844,-0.52111816,0.024536133,0.10601807,245
3.9215088,-0.091552734,4.425049,0.037841797,-0.10913086,0.9526367,-0.52075195,0.028930664,0.10491943,246
4.0283203,0.289917,4.135132,0.038330078,-0.109375,0.9526367,-0.52075195,0.028930664,0.10491943,247
3.8909912,0.12207031,4.8217773,0.038085938,-0.10888672,0.9523926,-0.52038574,0.027832031,0.10601807,248
3.9672852,0.24414062,4.2877197,0.037841797,-0.10864258,0.95288086,-0.52038574,0.027832031,0.10601807,249
7.751465,0.21362305,4.180908,0.038085938,-0.10888672,0.953125,-0.52038574,0.027832031,0.10601807,250
3.4942627,0.21362305,4.638672,0.038330078,-0.10864258,0.95288086,-0.5229492,0.025634766,0.10748291,251
3.5247803,0.19836426,4.501343,0.038085938,-0.10888672,0.953125,-0.5229492,0.025634766,0.10748291,252
3.8757324,0.36621094,4.3029785,0.037597656,-0.10839844,0.95288086,-0.5229492,0.025634766,0.109680176,253
4.058838,-3.692627,4.2877197,0.038085938,-0.10839844,0.9526367,-0.5222168,0.029296875,0.109680176,254
3.6468506,-0.015258789,3.9215088,0.038085938,-0.10864258,0.9526367,-0.5222168,0.029296875,0.109680176,255
3.8909912,0.030517578,4.180908,0.037597656,-0.10864258,0.953125,-0.5214844,0.026733398,0.10784912,0
4.196167,0.33569336,4.3029785,0.037109375,-0.10839844,0.95336914,-0.5214844,0.026733398,0.10784912,1
3.7841797,0.36621094,4.4403076,0.037597656,-0.1081543,0.9526367,-0.5214844,0.026733398,0.10784912,2
4.135132,-0.15258789,4.40979,0.038085938,-0.10839844,0.953125,-0.5247803,0.026367188,0.101623535,3
3.9367676,0.30517578,4.257202,0.03857422,-0.10864258,0.953125,-0.5247803,0.026367188,0.101623535,4
3.8909912,0.076293945,4.699707,0.03857422,-0.10864258,0.95336914,-0.5218506,0.026733398,0.10308838,5
3.982544,0.30517578,4.714966,0.038330078,-0.10864258,0.9536133,-0.5218506,0.026733398,0.10308838,6
4.0740967,0.76293945,4.4403076,0.038085938,-0.1081543,0.95288086,-0.5218506,0.026733398,0.10308838,7
3.692627,0.030517578,3.8452148,0.03857422,-0.10839844,0.953125,-0.5218506,0.026367188,0.101623535,8
3.6773682,3.829956,4.425049,0.038085938,-0.10913086,0.953125,-0.5218506,0.026367188,0.101623535,9
3.6621094,0.6713867,4.272461,0.038085938,-0.10913086,0.953125,-0.52111816,0.025634766,0.10089111,10
3.8146973,0.61035156,4.333496,0.038085938,-0.1081543,0.9536133,-0.52111816,0.025634766,0.10089111,11
3.7231445,0.4119873,4.5166016,0.037841797,-0.10839844,0.95336914,-0.52111816,0.025634766,0.10089111,12
4.1046143,0.12207031,4.043579,0.037841797,-0.10839844,0.953125,-0.5247803,0.024169922,0.101989746,13
3.3416748,0.33569336,4.043579,0.037353516,-0.10839844,0.953125,-0.5247803,0.024169922,0.101989746,14
7.675171,0.74768066,4.333496,0.037597656,-0.10839844,0.95288086,-0.52001953,0.025634766,0.097595215,15
3.540039,0.24414062,4.257202,0.037353516,-0.10864258,0.95214844,-0.52001953,0.025634766,0.097595215,16
3.6621094,0.289917,4.2266846,0.037597656,-0.10864258,0.9519043,-0.52001953,0.025634766,0.097595215,17
3.40271,0.16784668,4.348755,0.037597656,-0.10913086,0.95214844,-0.5218506,0.027832031,0.101257324,18
3.189087,0.33569336,4.2266846,0.038085938,-0.10913086,0.9526367,-0.5218506,0.027832031,0.101257324,19
3.479004,0.15258789,4.547119,0.038085938,-0.10888672,0.95214844,-0.52111816,0.022705078,0.10089111,20
3.9215088,0.2593994,4.348755,0.037597656,-0.10888672,0.9526367,-0.52111816,0.022705078,0.10089111,21
3.9978027,0.4272461,4.211426,0.037597656,-0.10839844,0.953125,-0.52111816,0.022705078,0.10089111,22
7.7209473,0.48828125,4.40979,0.037353516,-0.1081543,0.9526367,-0.5222168,0.025268555,0.09979248,23
3.829956,0.30517578,4.272461,0.037353516,-0.10864258,0.9526367,-0.5222168,0.025268555,0.09979248,24
4.3029785,-0.12207031,4.6844482,0.037109375,-0.10888672,0.9526367,-0.5196533,0.024536133,0.10015869,25
4.0130615,0.2746582,4.40979,0.037841797,-0.10839844,0.95336914,-0.5196533,0.024536133,0.10015869,26
4.119873,0.47302246,4.6691895,0.037597656,-0.10888672,0.953125,-0.5196533,0.024536133,0.10015869,27
3.6010742,0.289917,4.760742,0.037109375,-0.10961914,0.953125,-0.5189209,0.025268555,0.1038208,28
3.6773682,0.1373291,4.470825,0.037109375,-0.109375,0.9523926,-0.5189209,0.025268555,0.1038208,29
3.479004,0.5645752,4.40979,0.037841797,-0.10888672,0.95214844,-0.5192871,0.025268555,0.10675049,30
3.829956,0.16784668,4.5928955,0.037597656,-0.10888672,0.95288086,-0.5192871,0.025268555,0.10675049,31
3.5247803,0.32043457,4.058838,0.037597656,-0.10839844,0.9526367,-0.5192871,0.025268555,0.10675049,32
3.0517578,0.33569336,4.3182373,0.037597656,-0.109375,0.9523926,-0.5189209,0.02709961,0.1038208,34
3.8757324,0.16784668,4.40979,0.037353516,-0.109375,0.95288086,-0.51782227,0.026367188,0.1038208,35
3.326416,-0.091552734,4.470825,0.037353516,-0.10913086,0.9523926,-0.51782227,0.026367188,0.1038208,36
4.2266846,0.76293945,4.623413,0.037597656,-0.10864258,0.95288086,-0.51782227,0.026367188,0.1038208,37
3.7078857,0.091552734,4.3029785,0.037841797,-0.10864258,0.953125,-0.5181885,0.028564453,0.10308838,38
3.90625,0.61035156,3.8909912,0.037597656,-0.10888672,0.9526367,-0.5181885,0.028564453,0.10308838,39
4.211426,0.12207031,4.91333,0.037597656,-0.109375,0.9523926,-0.5181885,0.026733398,0.101623535,40
3.8146973,0.1373291,4.5166016,0.037841797,-0.10888672,0.95288086,-0.5185547,0.026733398,0.101623535,41
3.9367676,0.2746582,4.486084,0.037841797,-0.10961914,0.9526367,-0.5185547,0.026733398,0.101623535,42
3.90625,0.33569336,4.5166016,0.037597656,-0.10839844,0.953125,-0.5196533,0.02709961,0.105285645,43
7.6446533,0.579834,4.562378,0.037597656,-0.10839844,0.95336914,-0.5196533,0.02709961,0.105285645,44
3.5858154,0.35095215,4.3029785,0.037353516,-0.10913086,0.95288086,-0.5196533,0.02709961,0.105285645,45
3.8909912,0.2746582,4.3640137,0.037353516,-0.10888672,0.95288086,-0.5214844,0.026367188,0.1071167,46
3.982544,0.10681152,4.333496,0.037109375,-0.10839844,0.953125,-0.5214844,0.026367188,0.1071167,47
4.2266846,0.22888184,4.501343,0.037109375,-0.10864258,0.9523926,-0.52111816,0.02746582,0.10455322,48
3.6621094,0.579834,4.3182373,0.038085938,-0.1081543,0.95288086,-0.5214844,0.02709961,0.105651855,52
3.7078857,0.061035156,4.1503906,0.037841797,-0.1081543,0.9526367,-0.5181885,0.023071289,0.105651855,53
4.058838,0.1373291,4.3792725,0.037841797,-0.107910156,0.95288086,-0.5181885,0.023071289,0.105651855,54
3.90625,0.289917,4.180908,0.037353516,-0.10864258,0.9526367,-0.5181885,0.023071289,0.105651855,55
4.4403076,0.30517578,4.6081543,0.037353516,-0.10839844,0.95288086,-0.5181885,0.027832031,0.1005249,56
3.540039,0.39672852,4.4403076,0.036865234,-0.1081543,0.95288086,-0.5181885,0.027832031,0.1005249,57
3.479004,0.64086914,4.40979,0.036865234,-0.1081543,0.95288086,-0.5181885,0.024536133,0.10748291,58
3.9672852,0.12207031,4.501343,0.036865234,-0.10864258,0.9523926,-0.5181885,0.024536133,0.10748291,59
3.7384033,0.45776367,3.982544,0.037109375,-0.10839844,0.9526367,-0.5181885,0.024536133,0.10748291,60
4.2877197,0.2746582,4.119873,0.037109375,-0.10839844,0.953125,-0.52111816,0.024902344,0.109313965,61
4.0893555,0.61035156,4.3640137,0.036865234,-0.10839844,0.95288086,-0.52111816,0.024902344,0.109313965,62
4.058838,-0.16784668,4.196167,0.036621094,-0.10839844,0.95214844,-0.52075195,0.028198242,0.10491943,63
3.90625,0.18310547,4.3792725,0.036621094,-0.10839844,0.9523926,-0.52075195,0.028198242,0.10491943,64
3.9215088,0.579834,4.501343,0.037109375,-0.10864258,0.9526367,-0.52075195,0.028198242,0.10491943,65
3.326416,0.4119873,4.333496,0.037597656,-0.10864258,0.9523926,-0.51672363,0.027832031,0.10235596,66
3.768921,0,4.1656494,0.037841797,-0.10839844,0.95214844,-0.51672363,0.027832031,0.10235596,67
3.7994385,0.15258789,4.5776367,0.037109375,-0.10839844,0.95288086,-0.52404785,0.024536133,0.101623535,68
3.3721924,0.8392334,4.1046143,0.036865234,-0.1081543,0.953125,-0.52404785,0.024536133,0.101623535,69
3.7384033,0.48828125,4.196167,0.037109375,-0.10864258,0.95336914,-0.52404785,0.024536133,0.101623535,70
4.3945312,0.091552734,4.4555664,0.037597656,-0.10864258,0.95288086,-0.52001953,0.025634766,0.10345459,71
3.2348633,0.16784668,4.0740967,0.037841797,-0.10913086,0.95336914,-0.52001953,0.025634766,0.10345459,72
7.7819824,0.045776367,4.257202,0.037353516,-0.10913086,0.95336914,-0.5196533,0.02709961,0.105651855,73
4.043579,0.30517578,4.6844482,0.037109375,-0.10888672,0.95336914,-0.5196533,0.02709961,0.105651855,74
3.8604736,0.6561279,4.1656494,0.037109375,-0.10888672,0.953125,-0.5196533,0.02709961,0.105651855,75
3.8604736,0.2593994,4.3945312,0.037109375,-0.10888672,0.9526367,-0.5229492,0.024902344,0.10418701,76
3.6773682,0.16784668,3.829956,0.037597656,-0.10961914,0.9523926,-0.5229492,0.024902344,0.10418701,77
3.982544,0.4272461,4.0130615,0.037109375,-0.10961914,0.9523926,-0.5233154,0.022338867,0.101257324,78
3.9367676,0.36621094,4.3792725,0.036865234,-0.10913086,0.9526367,-0.5233154,0.022338867,0.101257324,79
3.5858154,0.5340576,4.3029785,0.036865234,-0.10864258,0.9523926,-0.5233154,0.022338867,0.101257324,80
3.9520264,-0.21362305,4.2877197,0.036621094,-0.10864258,0.9526367,-0.5233154,0.026000977,0.10821533,81
3.3569336,0.045776367,4.6691895,0.037109375,-0.10888672,0.9523926,-0.5233154,0.026000977,0.10821533,82
7.7819824,0.39672852,4.333496,0.036865234,-0.10888672,0.95288086,-0.5233154,0.02709961,0.101989746,83
3.829956,0.44250488,4.043579,0.037109375,-0.10864258,0.95288086,-0.5214844,0.02709961,0.101989746,84
4.043579,0.2593994,4.2266846,0.036621094,-0.10913086,0.953125,-0.5214844,0.02709961,0.101989746,85
0.015258789,0.38146973,4.5776367,0.036621094,-0.109375,0.95336914,-0.51708984,0.02746582,0.10675049,86
4.1046143,0.6561279,4.638672,0.036865234,-0.10888672,0.9536133,-0.51708984,0.02746582,0.10675049,87
3.6010742,0.39672852,4.135132,0.036865234,-0.10888672,0.95336914,-0.51708984,0.025268555,0.101257324,88
4.0740967,0.32043457,4.425049,0.036621094,-0.10888672,0.9536133,-0.5196533,0.025268555,0.101257324,89
3.6773682,0.33569336,4.211426,0.036621094,-0.10888672,0.95288086,-0.5196533,0.025268555,0.101257324,90
4.1503906,0.2746582,4.470825,0.036621094,-0.109375,0.953125,-0.51782227,0.023071289,0.1038208,91
3.7994385,0.36621094,4.623413,0.036621094,-0.10864258,0.95336914,-0.51782227,0.023071289,0.1038208,92
3.768921,0.32043457,4.4555664,0.036865234,-0.10839844,0.953125,-0.51782227,0.023071289,0.1038208,93
3.8757324,0.36621094,4.3640137,0.037353516,-0.10913086,0.9536133,-0.51782227,0.024902344,0.10308838,94
4.058838,0.15258789,4.562378,0.037109375,-0.10913086,0.953125,-0.51782227,0.024902344,0.10308838,95
3.9978027,0.5645752,4.272461,0.036621094,-0.10961914,0.953125,-0.52038574,0.02709961,0.10491943,96
4.257202,0.30517578,4.5776367,0.036865234,-0.10961914,0.953125,-0.52038574,0.02709961,0.10491943,97
3.8604736,0.7171631,4.119873,0.036621094,-0.10913086,0.95288086,-0.52038574,0.02709961,0.10491943,98
0.076293945,0.15258789,4.8065186,0.037353516,-0.10839844,0.953125,-0.522583,0.025268555,0.105285645,99
3.6621094,0.39672852,4.3029785,0.036376953,-0.10839844,0.9526367,-0.522583,0.025268555,0.105285645,100
3.6621094,0.30517578,4.638672,0.036865234,-0.10864258,0.95336914,-0.5258789,0.023803711,0.10418701,103
4.5166016,0.38146973,4.776001,0.036865234,-0.1081543,0.95336914,-0.5229492,0.028198242,0.1038208,104
3.753662,-0.091552734,4.2419434,0.036621094,-0.10839844,0.9536133,-0.5229492,0.028198242,0.1038208,105
3.6773682,0.35095215,4.257202,0.036621094,-0.10839844,0.9536133,-0.5196533,0.026733398,0.108947754,106
7.583618,0.4119873,4.3792725,0.037109375,-0.10839844,0.953125,-0.5196533,0.026733398,0.108947754,107
4.0893555,0.45776367,4.40979,0.036865234,-0.10864258,0.95336914,-0.5196533,0.026733398,0.108947754,108
3.3569336,0.38146973,4.2266846,0.036621094,-0.10864258,0.953125,-0.52075195,0.022705078,0.1071167,109
4.1503906,0.18310547,4.6539307,0.036621094,-0.10864258,0.953125,-0.52075195,0.022705078,0.1071167,110
3.7994385,0.32043457,4.6081543,0.037109375,-0.10888672,0.95336914,-0.5214844,0.025634766,0.10601807,112
3.692627,0.38146973,4.0283203,0.036865234,-0.10913086,0.95288086,-0.5214844,0.025634766,0.10601807,113
3.7384033,0.4272461,4.5166016,0.036865234,-0.10864258,0.953125,-0.5218506,0.024169922,0.10235596,114
4.257202,0.12207031,4.470825,0.036621094,-0.10888672,0.95288086,-0.5218506,0.024169922,0.10235596,115
3.6773682,0.50354004,4.3182373,0.036865234,-0.10888672,0.95288086,-0.52038574,0.023803711,0.10455322,116
3.5552979,0.39672852,4.7454834,0.036621094,-0.10839844,0.953125,-0.52038574,0.023803711,0.10455322,117
3.6468506,0.5340576,4.3792725,0.036865234,-0.10839844,0.95288086,-0.52038574,0.023803711,0.10455322,118
4.0130615,-0.061035156,4.852295,0.037109375,-0.10864258,0.9523926,-0.52404785,0.024169922,0.105285645,119
3.7384033,0.32043457,4.058838,0.037109375,-0.10888672,0.95288086,-0.52404785,0.024169922,0.105285645,120
4.1503906,0.10681152,4.5166016,0.036865234,-0.10864258,0.95336914,-0.52441406,0.026000977,0.10418701,121
3.7231445,0.30517578,4.470825,0.036865234,-0.109375,0.95336914,-0.52441406,0.026000977,0.10418701,122
3.8757324,0.289917,4.425049,0.036621094,-0.109375,0.953125,-0.52441406,0.026000977,0.10418701,123
3.768921,0.4119873,4.3945312,0.036376953,-0.10888672,0.9536133,-0.52111816,0.022705078,0.105285645,124
3.6468506,0.62561035,4.3792725,0.036621094,-0.10839844,0.95288086,-0.52111816,0.022705078,0.105285645,125
3.6315918,0.5645752,4.348755,0.036621094,-0.10864258,0.953125,-0.52001953,0.023071289,0.10491943,126
4.043579,0.62561035,4.501343,0.036621094,-0.10913086,0.9536133,-0.52001953,0.023071289,0.10491943,127
4.562378,0.2746582,4.6691895,0.036376953,-0.10888672,0.95336914,-0.52001953,0.023071289,0.10491943,128
3.8146973,0.44250488,3.9672852,0.036376953,-0.1081543,0.953125,-0.5222168,0.024536133,0.10455322,129
3.8909912,0.21362305,4.5928955,0.036865234,-0.10839844,0.95288086,-0.5222168,0.024536133,0.10455322,130
4.119873,0.4272461,4.272461,0.036376953,-0.10888672,0.95288086,-0.5222168,0.024536133,0.1038208,131
4.3029785,0.12207031,4.91333,0.036621094,-0.10839844,0.953125,-0.5233154,0.025634766,0.1038208,132
3.616333,0.5340576,4.6081543,0.036621094,-0.107910156,0.9526367,-0.5233154,0.025634766,0.1038208,133
3.5247803,0.2746582,4.3182373,0.036132812,-0.107910156,0.953125,-0.522583,0.022705078,0.10345459,134
4.2266846,0.18310547,4.425049,0.036865234,-0.107666016,0.95336914,-0.522583,0.022705078,0.10345459,135
3.90625,0.091552734,4.3792725,0.036621094,-0.107910156,0.953125,-0.522583,0.022705078,0.1005249,136
