GX,GY,GZ,AX,AY,AZ,MX,MY,MZ,TS
0.48828125,3.0822754,0.5340576,0.012451172,-0.035888672,-1.0202637,-0.001831055,-0.62475586,0.5130615,44
0.9918213,2.9449463,-0.35095215,0.011962891,-0.036621094,-1.0202637,-0.001831055,-0.62475586,0.5130615,45
0.5645752,3.0822754,-0.045776367,0.011962891,-0.036621094,-1.0200195,0.000732422,-0.6258545,0.5152588,46
0.289917,2.9449463,0.22888184,0.011962891,-0.036865234,-1.0200195,0.000732422,-0.6258545,0.5152588,47
0.38146973,2.7618408,0.24414062,0.012207031,-0.037353516,-1.0192871,0.001464844,-0.6254883,0.5126953,48
0.76293945,2.7770996,-0.10681152,0.012207031,-0.036621094,-1.0197754,0.001464844,-0.6254883,0.5126953,49
0.2593994,2.9907227,-0.21362305,0.012695313,-0.036621094,-1.0200195,0.001464844,-0.6254883,0.51123047,50
0.4272461,3.112793,-0.15258789,0.012207031,-0.036865234,-1.0202637,-0.001098633,-0.6265869,0.51123047,51
0.91552734,3.1738281,-0.076293945,0.011962891,-0.037109375,-1.0202637,-0.001098633,-0.6265869,0.51123047,52
0.5340576,3.4332275,0.12207031,0.011474609,-0.036865234,-1.0195312,0.002929688,-0.6269531,0.5148926,53
0.6713867,3.0517578,0.015258789,0.01171875,-0.036865234,-1.0195312,0.002929688,-0.6269531,0.5148926,54
0.8392334,3.326416,-0.091552734,0.011962891,-0.036621094,-1.0195312,0.003662109,-0.62402344,0.51379395,55
0.88500977,2.7160645,0.015258789,0.012207031,-0.036621094,-1.0200195,0.003662109,-0.62402344,0.51379395,56
0.76293945,3.0059814,0.16784668,0.012207031,-0.036376953,-1.0200195,0.003662109,-0.62402344,0.51379395,57
0.2746582,3.0670166,0.36621094,0.012451172,-0.03564453,-1.0200195,0.006591797,-0.6258545,0.51416016,58
0.8087158,2.9907227,0.045776367,0.012207031,-0.036376953,-1.0195312,0.006591797,-0.6258545,0.51416016,59
0.93078613,3.1585693,0.12207031,0.011962891,-0.036865234,-1.0202637,0.002563477,-0.6254883,0.5115967,60
0.4272461,2.7923584,0.15258789,0.011474609,-0.037109375,-1.0192871,0.002563477,-0.6254883,0.5115967,61
0.5187988,2.4719238,0,0.011474609,-0.036865234,-1.0197754,0.002563477,-0.6254883,0.5115967,62
0.79345703,2.8076172,0.21362305,0.011230469,-0.036132812,-1.0197754,0.006591797,-0.62402344,0.51379395,63
1.0375977,3.0670166,0.32043457,0.01171875,-0.036132812,-1.0200195,0.006591797,-0.62402344,0.51379395,64
0.62561035,3.326416,3.8452148,0.011962891,-0.036132812,-1.0202637,0.005493164,-0.6251221,0.5119629,65
0.4272461,3.2196045,0.16784668,0.011962891,-0.036132812,-1.0200195,0.005493164,-0.6251221,0.5119629,66
0.5645752,3.0975342,0.076293945,0.011962891,-0.036376953,-1.0205078,0.005493164,-0.6251221,0.5119629,67
0.50354004,2.8381348,0.045776367,0.011474609,-0.036376953,-1.0205078,0.007324219,-0.6229248,0.5119629,68
0.5493164,3.2043457,0.24414062,0.011230469,-0.036621094,-1.0202637,0.007324219,-0.6229248,0.5119629,69
0.47302246,3.0822754,0.15258789,0.01171875,-0.036376953,-1.0197754,0.005493164,-0.6265869,0.51342773,70
1.1444092,2.8686523,0.24414062,0.011962891,-0.036132812,-1.0200195,0.005493164,-0.6265869,0.51342773,71
0.88500977,3.3569336,0.1373291,0.01171875,-0.036132812,-1.0205078,0.005493164,-0.6265869,0.51342773,72
0.74768066,3.0822754,0.16784668,0.01171875,-0.036132812,-1.0202637,0.003295898,-0.6262207,0.5097656,73
0.5493164,3.2958984,0.47302246,0.01171875,-0.036621094,-1.0197754,0.003295898,-0.6262207,0.5097656,74
0.8544922,3.0975342,0.091552734,0.01171875,-0.036865234,-1.0209961,0.001098633,-0.6229248,0.51086426,75
0.32043457,3.250122,0.39672852,0.011474609,-0.036865234,-1.0209961,0.001098633,-0.6229248,0.51086426,76
0.91552734,3.112793,-0.061035156,0.011962891,-0.035888672,-1.0209961,0.003662109,-0.6251221,0.51086426,77
0.8544922,2.9144287,0.10681152,0.012451172,-0.035888672,-1.0212402,0.003662109,-0.6251221,0.51086426,78
0.7171631,3.2653809,0.16784668,0.012207031,-0.03564453,-1.0212402,0.003662109,-0.6251221,0.51086426,79
0.5645752,3.5552979,0.289917,0.011962891,-0.036132812,-1.0202637,0.003662109,-0.62475586,0.5090332,80
0.79345703,3.0975342,-0.10681152,0.01171875,-0.036132812,-1.0200195,0.003662109,-0.62475586,0.5090332,81
0.7324219,3.4179688,0.2746582,0.011474609,-0.036132812,-1.0202637,0.000732422,-0.6196289,0.51342773,82
0.7019043,3.326416,0.19836426,0.012207031,-0.036376953,-1.0202637,0.000732422,-0.6196289,0.51342773,83
1.0375977,2.8686523,-0.045776367,0.012451172,-0.036621094,-1.0200195,0.000732422,-0.6196289,0.51342773,84
0.44250488,2.822876,-0.045776367,0.012451172,-0.036132812,-1.0202637,0.002197266,-0.6229248,0.5115967,85
0.4119873,3.3416748,-3.7994385,0.011962891,-0.036132812,-1.0205078,0.002197266,-0.6229248,0.5115967,86
0.64086914,3.189087,0.19836426,0.01171875,-0.036132812,-1.020752,0.001464844,-0.6236572,0.5148926,87
0.7171631,3.3721924,0.39672852,0.011230469,-0.036621094,-1.0202637,0.001464844,-0.6236572,0.5148926,88
0.6561279,3.3416748,-3.90625,0.01171875,-0.036865234,-1.0200195,0.001464844,-0.6236572,0.5148926,89
0.869751,2.9296875,0.22888184,0.011962891,-0.036132812,-1.0205078,0.001464844,-0.623291,0.51342773,90
0.7324219,2.7160645,0.50354004,0.011962891,-0.036132812,-1.020752,0.001464844,-0.623291,0.51342773,91
0.7019043,3.40271,-0.076293945,0.011962891,-0.036132812,-1.020752,-0.002563477,-0.6218262,0.51049805,92
0.579834,3.4179688,0.091552734,0.011962891,-0.036376953,-1.0205078,-0.002563477,-0.6218262,0.51049805,93
0.45776367,2.6245117,0.061035156,0.01171875,-0.036132812,-1.0209961,-0.002563477,-0.6218262,0.51049805,94
0.61035156,3.2806396,0.061035156,0.01171875,-0.036376953,-1.0209961,-0.001831055,-0.623291,0.51123047,95
0.6713867,3.1585693,0.15258789,0.011962891,-0.036376953,-1.020752,-0.001831055,-0.623291,0.51123047,96
0.4272461,3.3416748,-0.045776367,0.011962891,-0.036621094,-1.0205078,0.002197266,-0.62402344,0.5152588,97
0.62561035,3.036499,-0.091552734,0.012207031,-0.036376953,-1.020752,0.002197266,-0.62402344,0.5152588,98
1.083374,2.746582,0.045776367,0.012207031,-0.036621094,-1.0205078,0.002197266,-0.62402344,0.51379395,99
0.7324219,3.0822754,0.15258789,0.012451172,-0.037109375,-1.0197754,-0.00402832,-0.62402344,0.51379395,100
0.7019043,3.5247803,0.15258789,0.011962891,-0.037109375,-1.0195312,-0.00402832,-0.62402344,0.51379395,101
0.50354004,3.0212402,0.16784668,0.011230469,-0.037109375,-1.0205078,-0.002197266,-0.6251221,0.5130615,102
1.083374,3.3721924,-0.16784668,0.011474609,-0.037353516,-1.0205078,-0.002197266,-0.6251221,0.5130615,103
0.9918213,3.112793,0.33569336,0.011474609,-0.036621094,-1.0202637,0.003662109,-0.62475586,0.51086426,104
0.10681152,3.0517578,0.21362305,0.011962891,-0.036621094,-1.020752,0.003662109,-0.62475586,0.51086426,105
0.64086914,3.2653809,0.44250488,0.011474609,-0.036621094,-1.0212402,0.003662109,-0.62475586,0.51086426,106
0.7171631,2.822876,0.22888184,0.012207031,-0.036865234,-1.020752,0.002929688,-0.62402344,0.5093994,107
0.4119873,2.670288,-0.1373291,0.01171875,-0.036865234,-1.0202637,0.002929688,-0.62402344,0.5093994,108
0.5187988,3.0212402,0.5187988,0.01171875,-0.036865234,-1.0202637,-0.002929688,-0.6221924,0.5126953,109
0.61035156,3.2958984,0.076293945,0.01171875,-0.036621094,-1.0205078,-0.002929688,-0.6221924,0.5126953,110
0.9460449,3.3569336,0.18310547,0.011474609,-0.036376953,-1.020752,-0.002929688,-0.6221924,0.5126953,111
0.30517578,2.9296875,0.015258789,0.011962891,-0.036376953,-1.020752,-0.000366211,-0.6236572,0.5083008,112
0.76293945,3.2653809,0.18310547,0.01171875,-0.035888672,-1.0205078,-0.000366211,-0.6236572,0.5083008,113
0.32043457,3.0822754,0.061035156,0.011474609,-0.036376953,-1.0209961,0.001464844,-0.623291,0.5126953,114
0.579834,2.532959,-0.18310547,0.012207031,-0.036132812,-1.0197754,0.001464844,-0.623291,0.5126953,115
0.79345703,2.7923584,-0.091552734,0.012207031,-0.036621094,-1.0200195,0.001464844,-0.623291,0.5126953,116
0.5950928,2.9296875,3.768921,0.01171875,-0.036621094,-1.0205078,-0.000366211,-0.6225586,0.5126953,117
0.9613037,2.822876,0.15258789,0.01171875,-0.036376953,-1.020752,-0.000366211,-0.6225586,0.5126953,118
0.7324219,2.5787354,0.076293945,0.01171875,-0.036376953,-1.0200195,0.002197266,-0.62475586,0.5119629,119
0.24414062,3.479004,0.091552734,0.011474609,-0.036376953,-1.0205078,0.002197266,-0.62475586,0.5119629,120
1.0986328,2.6855469,0.15258789,0.01171875,-0.036376953,-1.020752,0.002197266,-0.62475586,0.51013184,121
0.79345703,3.1433105,0.36621094,0.011474609,-0.036376953,-1.0205078,0.000366211,-0.62402344,0.51013184,122
0.76293945,3.3416748,0,0.011474609,-0.036376953,-1.0205078,0.000366211,-0.62402344,0.51013184,123
1.2207031,3.1280518,0.289917,0.011474609,-0.036865234,-1.0200195,0.003662109,-0.6262207,0.5148926,124
0.6866455,2.9754639,-0.19836426,0.01171875,-0.036376953,-1.0200195,0.003662109,-0.6262207,0.5148926,125
0.8392334,2.9144287,0.10681152,0.01171875,-0.036376953,-1.0200195,0.003662109,-0.62731934,0.51745605,126
0.7324219,2.822876,0.36621094,0.01171875,-0.037109375,-1.0195312,0.003662109,-0.62731934,0.51745605,127
0.6866455,3.3111572,0.16784668,0.011962891,-0.036376953,-1.0195312,0.003662109,-0.62731934,0.51745605,128
0.5340576,3.2348633,0.21362305,0.012451172,-0.036621094,-1.0202637,-0.002197266,-0.6236572,0.51379395,129
0.5493164,3.2043457,0.18310547,0.012207031,-0.036621094,-1.0205078,-0.002197266,-0.6236572,0.51379395,130
0.9613037,3.0059814,0.38146973,0.011962891,-0.036376953,-1.0197754,0.003295898,-0.6218262,0.51452637,131
0.8087158,2.9144287,0.33569336,0.012451172,-0.036376953,-1.0200195,0.003295898,-0.6218262,0.51452637,132
0.869751,3.5247803,-0.22888184,0.012451172,-0.036132812,-1.0202637,0.003295898,-0.6218262,0.51452637,133
0.64086914,3.036499,0.30517578,0.012207031,-0.036132812,-1.0202637,0.000732422,-0.62438965,0.5097656,134
0.50354004,2.9144287,0.24414062,0.012451172,-0.036376953,-1.0200195,0.000732422,-0.62438965,0.5097656,135
0.8087158,3.2196045,0.061035156,0.011962891,-0.036132812,-1.0202637,-0.000366211,-0.6254883,0.51342773,136
0.47302246,3.0670166,0.10681152,0.011962891,-0.035888672,-1.0202637,-0.000366211,-0.6254883,0.51342773,137
0.79345703,3.0822754,0.22888184,0.012207031,-0.036132812,-1.0205078,-0.000366211,-0.6254883,0.51342773,138
1.0070801,2.8686523,0.091552734,0.011962891,-0.035888672,-1.0205078,0.000366211,-0.62475586,0.5123291,139
0.90026855,3.3721924,-0.076293945,0.011474609,-0.036376953,-1.020752,0.000366211,-0.62475586,0.5123291,140
0.22888184,2.8686523,0.18310547,0.01171875,-0.036621094,-1.0202637,-0.002929688,-0.62475586,0.5093994,141
0.8087158,3.0822754,0.39672852,0.01171875,-0.036376953,-1.0200195,-0.002929688,-0.62475586,0.5093994,142
0.7019043,3.0670166,0.15258789,0.01171875,-0.036132812,-1.0197754,-0.002929688,-0.6258545,0.51452637,143
0.91552734,2.9144287,0.19836426,0.012207031,-0.03564453,-1.0202637,0.001831055,-0.6258545,0.51452637,144
0.50354004,3.5247803,0.36621094,0.012207031,-0.03564453,-1.0202637,0.001831055,-0.6258545,0.51452637,145
0.8239746,2.9907227,0.44250488,0.012207031,-0.036376953,-1.0202637,-0.000366211,-0.62438965,0.51086426,146
0.4119873,3.0212402,0.061035156,0.011474609,-0.036376953,-1.0202637,-0.000366211,-0.62438965,0.51086426,147
0.76293945,2.7008057,0.5645752,0.011474609,-0.035888672,-1.0200195,-0.09338379,-0.62475586,0.51049805,148
0.7019043,3.0670166,0.5645752,0.01171875,-0.036621094,-1.0200195,0.000366211,-0.62475586,0.51049805,149
0.5187988,2.8839111,0.5187988,0.011474609,-0.036621094,-1.0200195,0.000366211,-0.62475586,0.51049805,150
0.8544922,2.7313232,0.44250488,0.011230469,-0.036621094,-1.0197754,-0.005493164,-0.6236572,0.5079346,151
0.5187988,3.40271,-3.8909912,0.011230469,-0.036621094,-1.0202637,-0.005493164,-0.6236572,0.5079346,152
0.2746582,2.8686523,0.12207031,0.011474609,-0.036621094,-1.0200195,-0.001831055,-0.6251221,0.5093994,153
0.44250488,2.9144287,0.18310547,0.011230469,-0.036376953,-1.0195312,-0.001831055,-0.6251221,0.5093994,154
0.579834,3.1585693,-0.045776367,0.01171875,-0.036376953,-1.0200195,-0.001831055,-0.6251221,0.5093994,155
0.79345703,3.4179688,0.15258789,0.012207031,-0.036376953,-1.0205078,-0.001831055,-0.6236572,0.51379395,156
0.90026855,2.7770996,-0.1373291,0.011962891,-0.036376953,-1.0205078,-0.001831055,-0.6236572,0.51379395,157
0.61035156,3.1280518,0.24414062,0.012451172,-0.036376953,-1.0202637,-0.000732422,-0.6269531,0.51342773,158
0.8544922,3.250122,-0.10681152,0.012207031,-0.036621094,-1.0202637,-0.000732422,-0.6269531,0.51342773,159
0.8544922,3.250122,0.19836426,0.012451172,-0.036376953,-1.0200195,-0.000732422,-0.6269531,0.51342773,160
1.1138916,3.1738281,0.10681152,0.012207031,-0.036621094,-1.020752,0.00402832,-0.6229248,0.51086426,161
0.44250488,3.2043457,0.015258789,0.012207031,-0.036865234,-1.0205078,0.00402832,-0.6229248,0.51086426,162
0.5645752,2.670288,0.45776367,0.01171875,-0.036621094,-1.0197754,0.001098633,-0.6269531,0.5115967,163
0.9918213,2.9296875,0.5187988,0.01171875,-0.036621094,-1.0200195,0.001098633,-0.6269531,0.5115967,164
0.91552734,2.9907227,0.091552734,0.011962891,-0.036376953,-1.0200195,0.001098633,-0.6269531,0.5115967,165
0.579834,3.0670166,0.16784668,0.01171875,-0.036376953,-1.0195312,0.000366211,-0.6251221,0.5079346,166
0.869751,3.2958984,0.076293945,0.012207031,-0.036376953,-1.020752,0.000366211,-0.6251221,0.5079346,167
0.50354004,2.9754639,0.2593994,0.011962891,-0.036376953,-1.0205078,-0.001464844,-0.6236572,0.51086426,168
0.77819824,2.9296875,0.33569336,0.011962891,-0.036865234,-1.0197754,-0.001464844,-0.6236572,0.51086426,169
0.8392334,2.9754639,0.091552734,0.01171875,-0.037109375,-1.0205078,0.00402832,-0.6251221,0.5152588,170
0.6713867,2.8839111,0.15258789,0.011474609,-0.036865234,-1.0205078,0.00402832,-0.6251221,0.5152588,171
0.36621094,2.609253,0.4119873,0.011474609,-0.036621094,-1.020752,0.00402832,-0.6251221,0.5152588,172
0.64086914,2.7770996,-0.16784668,0.01171875,-0.036865234,-1.0205078,-0.001464844,-0.6254883,0.5115967,173
0.32043457,3.4179688,0.2746582,0.011962891,-0.036621094,-1.0200195,-0.001464844,-0.6254883,0.5115967,174
0.9613037,3.326416,-0.030517578,0.011474609,-0.036621094,-1.0200195,0.004760742,-0.62768555,0.51086426,175
0.50354004,3.1433105,0.2746582,0.012207031,-0.036376953,-1.0195312,0.004760742,-0.62768555,0.51086426,176
0.79345703,3.0975342,0.076293945,0.011962891,-0.036865234,-1.0197754,0.004760742,-0.62768555,0.51086426,177
1.083374,2.5939941,0.39672852,0.011962891,-0.036376953,-1.0205078,-0.001831055,-0.6269531,0.5115967,178
0.5493164,2.5787354,0.12207031,0.012451172,-0.035888672,-1.0205078,-0.001831055,-0.6269531,0.5115967,179
0.5187988,3.1280518,0.30517578,0.012451172,-0.036132812,-1.0200195,0.003295898,-0.623291,0.5093994,180
0.7019043,3.1738281,0.35095215,0.011962891,-0.037109375,-1.0200195,0.003295898,-0.623291,0.5093994,182
0.6866455,3.250122,0.10681152,0.01171875,-0.037353516,-1.0205078,-0.002563477,-0.6236572,0.51342773,183
0.869751,3.0975342,-0.18310547,0.011962891,-0.036865234,-1.0200195,-0.002563477,-0.6236572,0.51342773,184
0.61035156,2.8381348,0.18310547,0.012451172,-0.036376953,-1.0200195,-0.007324219,-0.62438965,0.5115967,185
0.8087158,2.5177002,0.5645752,0.011962891,-0.036132812,-1.0197754,-0.007324219,-0.62438965,0.5115967,186
0.48828125,2.8686523,0.1373291,0.011474609,-0.035888672,-1.0200195,-0.007324219,-0.62438965,0.5115967,187
0.5493164,2.8533936,0.12207031,0.01171875,-0.035888672,-1.0205078,-0.001831055,-0.6229248,0.508667,188
0.579834,2.8839111,0.21362305,0.011474609,-0.036132812,-1.0209961,-0.001831055,-0.6229248,0.508667,189
0.61035156,2.9754639,0.061035156,0.011474609,-0.036621094,-1.020752,0.004394531,-0.623291,0.5130615,190
0.5187988,2.8686523,0.33569336,0.011474609,-0.036621094,-1.0205078,0.004394531,-0.623291,0.5130615,191
1.0223389,2.9754639,-0.1373291,0.011962891,-0.036376953,-1.0197754,0.004394531,-0.623291,0.5079346,192
0.8087158,2.9449463,0,0.012207031,-0.035888672,-1.020752,-0.000732422,-0.62109375,0.5079346,193
0.7019043,3.0975342,0,0.012207031,-0.035888672,-1.0209961,-0.000732422,-0.62109375,0.5079346,194
0.9460449,3.1280518,0.30517578,0.01171875,-0.03564453,-1.0205078,0.001464844,-0.6254883,0.5079346,195
0.93078613,3.189087,0.21362305,0.011962891,-0.036865234,-1.0202637,0.001464844,-0.6254883,0.5079346,196
0.39672852,3.0212402,0.19836426,0.01171875,-0.037109375,-1.0200195,-0.000366211,-0.62475586,0.5079346,197
0.6561279,3.189087,0,0.012207031,-0.036865234,-1.0200195,-0.000366211,-0.62475586,0.5079346,198
1.0375977,3.3111572,0.091552734,0.011962891,-0.036621094,-1.0197754,-0.000366211,-0.62475586,0.5079346,199
0.74768066,3.1280518,-0.10681152,0.011962891,-0.036132812,-1.0200195,0.005126953,-0.62438965,0.5130615,200
0.5645752,3.2196045,0.47302246,0.011474609,-0.036132812,-1.0200195,0.005126953,-0.62438965,0.5130615,201
0.6713867,2.5177002,0.045776367,0.01171875,-0.036376953,-1.0202637,0.002197266,-0.6265869,0.51086426,202
0.35095215,3.036499,-0.061035156,0.01171875,-0.036132812,-1.0197754,0.002197266,-0.6265869,0.51086426,203
1.0223389,3.0670166,0.39672852,0.011230469,-0.036132812,-1.0200195,0.002197266,-0.6265869,0.51086426,204
0.93078613,3.326416,-0.045776367,0.011230469,-0.036376953,-1.0202637,0.000366211,-0.6251221,0.51123047,205
0.6713867,3.326416,0.061035156,0.011474609,-0.036132812,-1.0202637,0.000366211,-0.6251221,0.51123047,206
0.36621094,3.2806396,0.4119873,0.011474609,-0.035888672,-1.0202637,0.000366211,-0.6254883,0.51086426,207
1.0681152,3.0670166,-0.030517578,0.01171875,-0.035888672,-1.0205078,0.000366211,-0.6254883,0.51086426,208
0.36621094,3.3874512,-0.16784668,0.011474609,-0.036621094,-1.0205078,0.000366211,-0.6254883,0.51086426,209
0.50354004,2.7618408,0.10681152,0.01171875,-0.036376953,-1.0205078,0.004394531,-0.6254883,0.51123047,210
0.9918213,2.9296875,0.18310547,0.01171875,-0.036376953,-1.0202637,0.004394531,-0.6254883,0.51123047,211
0.5187988,3.1433105,0.45776367,0.01171875,-0.036865234,-1.0205078,-0.001098633,-0.6254883,0.51086426,212
0.90026855,3.1433105,0.18310547,0.011474609,-0.036865234,-1.020752,-0.001098633,-0.6254883,0.51086426,213
0.5187988,2.7770996,0.045776367,0.011474609,-0.036376953,-1.0205078,-0.001098633,-0.6254883,0.51086426,214
0.289917,3.036499,-0.12207031,0.01171875,-0.03564453,-1.0202637,0.001831055,-0.62731934,0.5097656,215
0.62561035,2.8381348,3.8757324,0.011962891,-0.035888672,-1.0195312,0.001831055,-0.62731934,0.5097656,216
0.76293945,3.0059814,0.12207031,0.01171875,-0.036132812,-1.0197754,-0.000366211,-0.6254883,0.51049805,217
0.869751,3.189087,0.5187988,0.01171875,-0.035888672,-1.0200195,-0.000366211,-0.6254883,0.51049805,218
0.50354004,2.9754639,0.35095215,0.011474609,-0.035888672,-1.0200195,0.003295898,-0.62475586,0.51452637,219
0.91552734,2.8533936,0.1373291,0.011474609,-0.036132812,-1.0200195,0.003295898,-0.62475586,0.51452637,220
0.5187988,2.9144287,0.015258789,0.01171875,-0.036132812,-1.0205078,0.003295898,-0.62475586,0.51452637,221
0.7171631,3.1433105,-0.12207031,0.012207031,-0.035888672,-1.020752,0.005859375,-0.6229248,0.51123047,222
0.8544922,3.0059814,0.12207031,0.011962891,-0.036376953,-1.0202637,0.005859375,-0.6229248,0.51123047,223
0.45776367,2.7008057,0.1373291,0.012207031,-0.036865234,-1.0197754,0.004394531,-0.62475586,0.51086426,224
0.30517578,3.2806396,0.35095215,0.01171875,-0.036621094,-1.0197754,0.004394531,-0.62475586,0.51086426,225
1.2054443,2.7923584,0,0.011962891,-0.036865234,-1.0200195,0.004394531,-0.62475586,0.51086426,226
0.5493164,3.036499,0.18310547,0.012207031,-0.036865234,-1.020752,0.001464844,-0.6265869,0.51123047,227
0.48828125,2.8839111,0.2593994,0.012207031,-0.036621094,-1.0200195,0.001464844,-0.6265869,0.51123047,228
0.8544922,2.89917,0.15258789,0.012207031,-0.035888672,-1.0202637,-0.002197266,-0.62768555,0.51049805,229
0.47302246,3.1738281,0,0.01171875,-0.03564453,-1.0192871,-0.002197266,-0.62768555,0.51049805,230
0.91552734,2.9144287,-0.10681152,0.01171875,-0.035888672,-1.0202637,-0.002197266,-0.62768555,0.51049805,231
0.12207031,2.822876,3.7841797,0.011962891,-0.036132812,-1.0202637,-0.005493164,-0.6269531,0.5115967,232
1.0070801,3.1433105,0.5950928,0.011474609,-0.036865234,-1.0202637,-0.005493164,-0.6269531,0.5115967,233
0.79345703,2.9449463,0.289917,0.011962891,-0.036376953,-1.0200195,0.003662109,-0.6258545,0.5090332,234
0.8087158,3.479004,0.1373291,0.012207031,-0.036132812,-1.020752,0.003662109,-0.6258545,0.5090332,235
0.8544922,2.746582,0.289917,0.01171875,-0.035888672,-1.0202637,0.003662109,-0.6258545,0.5093994,236
0.19836426,3.3416748,0.19836426,0.011962891,-0.03564453,-1.0209961,-0.001831055,-0.6229248,0.5093994,237
0.8087158,3.250122,0.22888184,0.012207031,-0.036132812,-1.0205078,-0.001831055,-0.6229248,0.5093994,238
0.7324219,3.036499,0.35095215,0.011962891,-0.036376953,-1.0200195,-0.001831055,-0.6262207,0.51049805,239
0.77819824,2.9144287,0.32043457,0.011962891,-0.036621094,-1.0200195,-0.001831055,-0.6262207,0.51049805,240
1.0681152,3.3416748,0.19836426,0.011962891,-0.036132812,-1.0202637,-0.001831055,-0.6258545,0.51342773,241
0.88500977,2.7618408,0.289917,0.011474609,-0.036132812,-1.0202637,0.00402832,-0.6258545,0.51342773,242
0.61035156,2.7618408,0.030517578,0.011474609,-0.036376953,-1.020752,0.00402832,-0.6258545,0.51342773,243
0.6713867,2.8076172,0.1373291,0.011474609,-0.035888672,-1.0209961,0.001464844,-0.6269531,0.5093994,244
0.6561279,2.670288,0.22888184,0.01171875,-0.036132812,-1.0212402,0.001464844,-0.6269531,0.5093994,245
0.869751,3.112793,-0.16784668,0.011962891,-0.036132812,-1.020752,0.002563477,-0.6258545,0.5079346,246
0.62561035,2.8533936,0.30517578,0.01171875,-0.036376953,-1.0202637,0.002563477,-0.6258545,0.5079346,247
0.6561279,2.8533936,0.289917,0.011230469,-0.036376953,-1.0205078,0.002563477,-0.6258545,0.5079346,248
0.6866455,2.9907227,-0.061035156,0.011474609,-0.035888672,-1.0202637,-0.001098633,-0.6229248,0.51086426,249
0.6561279,2.746582,0,0.011230469,-0.035888672,-1.0202637,-0.001098633,-0.6229248,0.51086426,250
0.48828125,3.1738281,0.19836426,0.01171875,-0.036132812,-1.0205078,0.001098633,-0.623291,0.51123047,251
0.4272461,3.0212402,0.12207031,0.011230469,-0.036621094,-1.0200195,0.001098633,-0.623291,0.51123047,252
0.76293945,2.7313232,0.5493164,0.011230469,-0.036865234,-1.0205078,0.001098633,-0.623291,0.51123047,253
0.77819824,2.5634766,0.18310547,0.011474609,-0.036621094,-1.0200195,0.005493164,-0.6236572,0.51123047,254
0.5645752,3.0670166,0.16784668,0.011474609,-0.036132812,-1.0200195,0.005493164,-0.6236572,0.51123047,255
0.7019043,3.4484863,0.015258789,0.012207031,-0.036376953,-1.020752,0.004394531,-0.6254883,0.5130615,0
0.9613037,2.7618408,-0.061035156,0.012207031,-0.036621094,-1.0202637,0.004394531,-0.6254883,0.5130615,1
0.7171631,2.8686523,0.15258789,0.012451172,-0.036865234,-1.0202637,0.004394531,-0.6254883,0.5130615,2
0.5950928,2.9296875,0.289917,0.01171875,-0.036865234,-1.0200195,0.005126953,-0.62402344,0.5119629,3
0.6561279,2.9144287,0.22888184,0.011962891,-0.036865234,-1.0202637,0.005126953,-0.62402344,0.5119629,4
0.77819824,3.5247803,-0.015258789,0.011474609,-0.036376953,-1.0202637,0.002197266,-0.6229248,0.51672363,5
0.5187988,2.9296875,-3.8604736,0.01171875,-0.035888672,-1.0205078,0.002197266,-0.6229248,0.51672363,6
0.8087158,3.250122,0.045776367,0.01171875,-0.036376953,-1.0205078,0.09338379,-0.623291,0.51086426,7
0.33569336,2.9907227,-0.24414062,0.011962891,-0.035888672,-1.0205078,-0.000366211,-0.623291,0.51086426,8
0.79345703,2.89917,0.48828125,0.011962891,-0.036132812,-1.0205078,-0.000366211,-0.623291,0.51086426,9
0.5187988,3.3416748,0.21362305,0.011230469,-0.036376953,-1.020752,0.001831055,-0.62475586,0.51049805,10
0.6713867,3.1433105,0.030517578,0.011474609,-0.036621094,-1.0205078,0.001831055,-0.62475586,0.51049805,11
0.74768066,2.8686523,0.15258789,0.01171875,-0.036865234,-1.0202637,-0.001831055,-0.6236572,0.5130615,12
0.289917,2.7923584,0,0.01171875,-0.036865234,-1.020752,-0.001831055,-0.6236572,0.5130615,13
0.93078613,2.8839111,0.18310547,0.011474609,-0.036621094,-1.0205078,-0.001831055,-0.6236572,0.5130615,14
1.0681152,3.1585693,-0.030517578,0.011230469,-0.036132812,-1.0200195,0.003295898,-0.6236572,0.5123291,15
0.5340576,2.8533936,-0.045776367,0.011230469,-0.035888672,-1.0195312,0.003295898,-0.6236572,0.5123291,16
0.5493164,2.9144287,0.16784668,0.011230469,-0.035888672,-1.0200195,0.002929688,-0.623291,0.51452637,17
0.4272461,3.1280518,0.21362305,0.011962891,-0.036132812,-1.020752,0.002929688,-0.623291,0.51452637,18
0.36621094,2.4719238,-3.768921,0.012451172,-0.035888672,-1.0209961,0.002929688,-0.623291,0.51452637,19
0.76293945,2.4414062,0.2593994,0.012207031,-0.035888672,-1.0209961,0.003662109,-0.62768555,0.51123047,20
0.4119873,2.609253,0.15258789,0.012207031,-0.035888672,-1.020752,0.003662109,-0.62768555,0.51123047,21
0.9918213,3.0517578,-0.045776367,0.01171875,-0.035888672,-1.0205078,0.001464844,-0.6221924,0.51672363,22
0.47302246,2.7618408,0.18310547,0.011962891,-0.036132812,-1.0200195,0.001464844,-0.6221924,0.51672363,23
1.0375977,2.9144287,0.30517578,0.011230469,-0.036376953,-1.0202637,0.001464844,-0.6221924,0.51672363,24
0.6713867,3.112793,0,0.011230469,-0.036132812,-1.0200195,0.002197266,-0.62475586,0.51416016,25
0.5187988,2.8076172,-0.061035156,0.01171875,-0.036132812,-1.0202637,0.002197266,-0.62475586,0.51416016,26
0.64086914,3.3569336,-0.10681152,0.012207031,-0.036132812,-1.0202637,-0.000366211,-0.62402344,0.51049805,28
0.77819824,3.3111572,0.15258789,0.011474609,-0.036132812,-1.0205078,-0.000366211,-0.62402344,0.515625,29
0.2746582,2.9296875,0.12207031,0.011474609,-0.036132812,-1.020752,0.002197266,-0.623291,0.515625,30
0.5645752,2.8686523,0.12207031,0.011962891,-0.036376953,-1.020752,0.002197266,-0.623291,0.515625,31
0.5645752,2.8533936,0.4272461,0.011230469,-0.036621094,-1.0202637,-0.000732422,-0.62402344,0.51416016,32
0.91552734,2.7618408,0.30517578,0.011474609,-0.036376953,-1.0200195,-0.000732422,-0.62402344,0.51416016,33
0.38146973,2.89917,3.8909912,0.011474609,-0.036132812,-1.0202637,0.004760742,-0.6265869,0.5159912,34
0.869751,2.3498535,0.045776367,0.011474609,-0.036376953,-1.0200195,0.004760742,-0.6265869,0.5159912,35
0.9613037,3.479004,-0.030517578,0.01171875,-0.036621094,-1.0205078,0.004760742,-0.6265869,0.5159912,36
0.88500977,3.112793,0.22888184,0.01171875,-0.036376953,-1.0202637,0.003295898,-0.6269531,0.51708984,37
0.64086914,3.0517578,0.4119873,0.011962891,-0.036621094,-1.0205078,0.003295898,-0.6269531,0.51708984,38
0.64086914,2.8839111,0.12207031,0.011474609,-0.036621094,-1.0202637,-0.002563477,-0.62768555,0.5148926,39
1.0223389,3.4484863,0.045776367,0.011474609,-0.036621094,-1.0200195,-0.002563477,-0.62768555,0.5148926,40
0.5340576,3.1738281,0.015258789,0.011474609,-0.035888672,-1.020752,-0.002563477,-0.62768555,0.5148926,41
0.4272461,3.1585693,0.22888184,0.011474609,-0.036376953,-1.0202637,0.005493164,-0.630249,0.515625,42
0.5950928,3.189087,-0.030517578,0.011474609,-0.036376953,-1.0202637,0.005493164,-0.630249,0.515625,43
0.579834,2.9449463,0.061035156,0.01171875,-0.036865234,-1.0195312,-0.000366211,-0.6287842,0.51452637,44
0.33569336,3.0517578,0.15258789,0.011230469,-0.036621094,-1.0192871,-0.000366211,-0.6287842,0.51452637,45
0.76293945,3.4332275,0.12207031,0.011230469,-0.036865234,-1.0202637,-0.000366211,-0.6287842,0.51452637,46
0.5340576,3.0975342,0.39672852,0.01171875,-0.036376953,-1.0197754,0.000732422,-0.62475586,0.5123291,47
0.38146973,2.7923584,0.091552734,0.012207031,-0.036132812,-1.0205078,0.000732422,-0.62475586,0.5123291,48
0.869751,2.4414062,0.35095215,0.011962891,-0.036132812,-1.0200195,-0.002929688,-0.6251221,0.5126953,49
0.7171631,3.0059814,-0.21362305,0.012207031,-0.035888672,-1.0197754,-0.002929688,-0.6251221,0.5126953,50
0.869751,2.8686523,0.47302246,0.01171875,-0.036376953,-1.0200195,-0.002929688,-0.6251221,0.5126953,51
0.8239746,3.3874512,0.22888184,0.012207031,-0.037109375,-1.0200195,0.004394531,-0.62475586,0.5152588,52
0.62561035,3.2958984,-0.091552734,0.012451172,-0.037109375,-1.020752,0.004394531,-0.62475586,0.5152588,53
0.9613037,3.2958984,-0.18310547,0.012207031,-0.036621094,-1.0202637,0.005859375,-0.6258545,0.5159912,54
1.0070801,3.1280518,3.8146973,0.011962891,-0.036132812,-1.0200195,0.005859375,-0.6258545,0.5159912,55
0.4119873,3.5705566,-3.7384033,0.011962891,-0.036132812,-1.0202637,0.00402832,-0.62402344,0.51342773,56
0.869751,3.036499,0.2746582,0.011474609,-0.036132812,-1.020752,0.00402832,-0.62402344,0.51342773,57
0.4272461,3.0822754,0.015258789,0.011474609,-0.036621094,-1.0205078,0.00402832,-0.62402344,0.51342773,58
1.0375977,3.0822754,-0.2593994,0.011962891,-0.036865234,-1.0202637,0.005493164,-0.6265869,0.51379395,59
0.76293945,2.7923584,0.19836426,0.011962891,-0.037109375,-1.0202637,0.005493164,-0.6265869,0.51379395,60
0.869751,2.8381348,0.21362305,0.011962891,-0.036865234,-1.0202637,0.005493164,-0.62475586,0.50683594,61
0.7171631,3.4484863,0.045776367,0.012207031,-0.036865234,-1.0200195,0.005493164,-0.62475586,0.50683594,62
0.4272461,3.3111572,0.10681152,0.011962891,-0.036865234,-1.0202637,0.005493164,-0.62475586,0.50683594,63
0.1373291,3.0822754,0.1373291,0.01171875,-0.036865234,-1.0195312,0.001098633,-0.6262207,0.5126953,64
0.5950928,3.0059814,0.18310547,0.011962891,-0.036621094,-1.0195312,0.001098633,-0.6262207,0.5126953,65
0,2.960205,0.091552734,0.012207031,-0.036376953,-1.019043,0.004760742,-0.62475586,0.5130615,66
0.7171631,3.1280518,0.12207031,0.012207031,-0.036621094,-1.0192871,0.004760742,-0.62475586,0.5130615,67
0.45776367,2.5634766,-0.030517578,0.012207031,-0.036621094,-1.019043,0.004760742,-0.62475586,0.5130615,68
0.4272461,2.89917,0.45776367,0.011962891,-0.036376953,-1.0200195,0.001831055,-0.62438965,0.5115967,69
0.2593994,3.2348633,0.38146973,0.01171875,-0.036621094,-1.0200195,0.001831055,-0.62438965,0.5115967,70
1.0681152,3.3721924,0.289917,0.011474609,-0.036376953,-1.0205078,0.001098633,-0.62805176,0.5159912,71
0.8087158,3.2653809,0.061035156,0.01171875,-0.036376953,-1.0202637,0.001098633,-0.62805176,0.5159912,72
1.3122559,3.0212402,0.030517578,0.012207031,-0.036376953,-1.0205078,0.001098633,-0.62402344,0.51416016,73
0.091552734,3.2958984,0.015258789,0.011962891,-0.036376953,-1.0195312,0.000732422,-0.62402344,0.51416016,74
0.2746582,3.0059814,0.21362305,0.011962891,-0.036376953,-1.0195312,0.000732422,-0.62402344,0.51416016,75
0.6713867,3.1280518,0.18310547,0.011962891,-0.036132812,-1.0200195,0.002197266,-0.623291,0.51379395,76
0.7324219,3.036499,0.2746582,0.011474609,-0.036376953,-1.0205078,0.002197266,-0.623291,0.51379395,77
0.5187988,3.0822754,0.030517578,0.01171875,-0.036132812,-1.0202637,0.002197266,-0.6258545,0.5148926,78
0.79345703,2.9296875,0.36621094,0.011962891,-0.036376953,-1.0200195,0.001464844,-0.6258545,0.5148926,79
0.64086914,2.9754639,0.16784668,0.011962891,-0.036132812,-1.020752,0.001464844,-0.6258545,0.5148926,80
0.62561035,3.1280518,0.10681152,0.012207031,-0.036376953,-1.020752,-0.001464844,-0.6269531,0.5126953,81
0.62561035,3.2043457,0.39672852,0.011962891,-0.036376953,-1.020752,-0.001464844,-0.6269531,0.5126953,82
0.6561279,3.1280518,0.4119873,0.01171875,-0.036621094,-1.0197754,-0.001098633,-0.6262207,0.5126953,83
0.5950928,3.1433105,0.22888184,0.01171875,-0.03564453,-1.0205078,-0.001098633,-0.6262207,0.5126953,84
0.50354004,3.5858154,-0.10681152,0.01171875,-0.035888672,-1.0197754,-0.001098633,-0.6262207,0.5126953,85
0.61035156,3.2806396,0.015258789,0.01171875,-0.036132812,-1.0197754,0.003295898,-0.6254883,0.51342773,86
0.91552734,2.7618408,0.30517578,0.011474609,-0.036132812,-1.0197754,0.003295898,-0.6254883,0.51342773,87
0.5187988,2.8686523,-0.18310547,0.01171875,-0.036376953,-1.0192871,-0.001098633,-0.62438965,0.5115967,88
1.0223389,2.7618408,0.21362305,0.01171875,-0.036621094,-1.0197754,-0.001098633,-0.62438965,0.5115967,89
0.8239746,3.326416,0.21362305,0.01171875,-0.036865234,-1.0200195,-0.001098633,-0.62438965,0.5115967,90
1.083374,3.7078857,-0.091552734,0.011474609,-0.036132812,-1.0205078,0.000732422,-0.62438965,0.5115967,91
0.6561279,2.960205,0.24414062,0.011230469,-0.036376953,-1.0205078,0.000732422,-0.62438965,0.5115967,92
0.869751,2.9754639,0.19836426,0.011230469,-0.036376953,-1.020752,0.002563477,-0.62145996,0.5123291,93
0.8392334,2.89917,0.091552734,0.011962891,-0.036376953,-1.0205078,0.002563477,-0.62145996,0.5123291,94
0.5645752,2.7008057,-0.32043457,0.011474609,-0.036621094,-1.0202637,0.002563477,-0.62145996,0.5123291,95
0.5950928,2.746582,0.289917,0.011474609,-0.036865234,-1.0200195,-0.002197266,-0.62402344,0.51013184,96
1.0375977,3.2958984,0.19836426,0.011230469,-0.036376953,-1.0202637,-0.002197266,-0.62402344,0.51013184,97
1.0070801,2.9144287,-0.015258789,0.011474609,-0.036621094,-1.0202637,0.005493164,-0.6258545,0.5079346,98
0.35095215,2.6245117,3.8604736,0.012207031,-0.036132812,-1.0197754,0.005493164,-0.6258545,0.5079346,99
0.36621094,3.0517578,0.10681152,0.01171875,-0.036132812,-1.0195312,0.006225586,-0.6262207,0.5130615,100
0.44250488,2.9296875,-0.1373291,0.011474609,-0.036376953,-1.0195312,0.006225586,-0.6262207,0.5130615,101
0.5645752,2.8076172,0.44250488,0.011474609,-0.035888672,-1.0195312,0.006225586,-0.6262207,0.5130615,102
0.48828125,2.9449463,0.076293945,0.011474609,-0.035888672,-1.0202637,0.003662109,-0.62402344,0.51745605,103
0.33569336,3.4332275,0.076293945,0.01171875,-0.036376953,-1.020752,0.003662109,-0.62402344,0.51745605,104
0.6561279,3.0059814,0.12207031,0.01171875,-0.036132812,-1.0205078,0.004394531,-0.62402344,0.5152588,105
0.35095215,3.0822754,0.18310547,0.011474609,-0.036376953,-1.020752,0.004394531,-0.62402344,0.5152588,106
1.0375977,3.463745,-0.21362305,0.011474609,-0.036376953,-1.020752,0.004394531,-0.62402344,0.5152588,107
0.74768066,3.2958984,0.21362305,0.011474609,-0.036621094,-1.0205078,0.002929688,-0.6251221,0.5159912,108
0.4272461,2.8533936,0.061035156,0.01171875,-0.036621094,-1.0200195,0.002929688,-0.6251221,0.5159912,109
0.32043457,3.3569336,0.4272461,0.012207031,-0.036376953,-1.0205078,-0.000366211,-0.6258545,0.5115967,110
0.7019043,3.0975342,0.47302246,0.011962891,-0.036376953,-1.0200195,-0.000366211,-0.6258545,0.5115967,111
0.4119873,3.0822754,0.50354004,0.012207031,-0.036376953,-1.0200195,-0.000366211,-0.6258545,0.5115967,112
1.2054443,3.2806396,0.091552734,0.01171875,-0.036865234,-1.0197754,0.005493164,-0.6254883,0.5119629,113
0.4272461,2.9907227,0.2593994,0.01171875,-0.036865234,-1.020752,0.005493164,-0.6254883,0.5119629,114
1.1901855,3.1433105,0.061035156,0.011474609,-0.036621094,-1.0200195,0.004394531,-0.6262207,0.5148926,115
0.091552734,3.2043457,-0.36621094,0.01171875,-0.036132812,-1.0202637,0.004394531,-0.6262207,0.5148926,116
0.061035156,3.189087,0.36621094,0.01171875,-0.036132812,-1.0202637,0.004394531,-0.6262207,0.5148926,117
0.7019043,3.250122,0.076293945,0.01171875,-0.036132812,-1.0200195,0.005126953,-0.62805176,0.5126953,118
0.62561035,3.250122,0.2746582,0.01171875,-0.036132812,-1.0202637,0.005126953,-0.62805176,0.5126953,119
0.88500977,3.0670166,0.22888184,0.01171875,-0.036376953,-1.0200195,0.005126953,-0.6269531,0.51379395,120
1.083374,3.1585693,0.44250488,0.012451172,-0.036865234,-1.0202637,0.005126953,-0.6269531,0.51379395,121
0.33569336,2.8686523,0.16784668,0.011962891,-0.036621094,-1.0202637,0.005126953,-0.6269531,0.51379395,122
1.2359619,3.2196045,0.045776367,0.010986328,-0.036621094,-1.020752,0.006591797,-0.62768555,0.5119629,123
0.38146973,3.0975342,0.1373291,0.01171875,-0.036376953,-1.020752,0.006591797,-0.62768555,0.5119629,124
0.4272461,3.0822754,0.22888184,0.011474609,-0.036132812,-1.0205078,0.002197266,-0.63061523,0.5159912,125
0.7171631,2.9754639,0.36621094,0.01171875,-0.036132812,-1.0202637,0.002197266,-0.63061523,0.5159912,126
0.5340576,3.3416748,0.19836426,0.010986328,-0.035888672,-1.0197754,0.004394531,-0.6269531,0.5130615,127
0.579834,3.2196045,0.19836426,0.011474609,-0.036132812,-1.0202637,0.004394531,-0.6269531,0.5130615,128
1.2359619,3.0517578,-0.21362305,0.011230469,-0.036865234,-1.0200195,0.004394531,-0.6269531,0.5130615,129
1.083374,3.0517578,0.5187988,0.01171875,-0.036621094,-1.0192871,-0.002197266,-0.6258545,0.515625,130
0.47302246,3.2348633,0.015258789,0.011962891,-0.036621094,-1.0197754,-0.002197266,-0.6258545,0.515625,131
0.62561035,3.0670166,0.4119873,0.011962891,-0.036376953,-1.0200195,0.001464844,-0.6258545,0.5126953,132
0.88500977,3.0517578,0.091552734,0.011962891,-0.036376953,-1.0200195,0.001464844,-0.6258545,0.5126953,133
0.9765625,3.0975342,0.1373291,0.01171875,-0.036865234,-1.0202637,0.001464844,-0.6258545,0.5126953,134
0.7324219,2.4719238,0.4119873,0.011474609,-0.037353516,-1.0202637,-0.001464844,-0.6254883,0.51416016,135
0.79345703,3.0975342,0.045776367,0.01171875,-0.037353516,-1.0202637,-0.001464844,-0.6254883,0.51416016,136
1.1291504,2.7313232,0.50354004,0.011474609,-0.037109375,-1.0197754,0.002563477,-0.62805176,0.5148926,137
0.45776367,2.9907227,-0.061035156,0.011962891,-0.036865234,-1.0202637,0.002563477,-0.62805176,0.5148926,138
0.61035156,2.5024414,-0.1373291,0.011962891,-0.036621094,-1.0195312,0.002563477,-0.62805176,0.5148926,139
0.50354004,3.0517578,0.061035156,0.01171875,-0.036132812,-1.0197754,0.002929688,-0.6269531,0.5130615,140
0.869751,3.2043457,0.2746582,0.011962891,-0.036376953,-1.0200195,0.002929688,-0.6269531,0.5130615,141
0.5340576,3.0517578,0.061035156,0.01171875,-0.036376953,-1.0195312,0.003662109,-0.6251221,0.5152588,142
0.74768066,3.1280518,0.16784668,0.01171875,-0.035888672,-1.019043,0.003662109,-0.6251221,0.5152588,143
0.7019043,3.112793,0.1373291,0.01171875,-0.035888672,-1.0195312,0.003662109,-0.6251221,0.5152588,144
0.9613037,3.036499,-0.015258789,0.011230469,-0.036132812,-1.0195312,0.005493164,-0.6262207,0.5148926,145
0.36621094,3.1585693,-0.12207031,0.011474609,-0.035888672,-1.0197754,0.005493164,-0.6262207,0.5148926,146
1.1444092,2.5787354,0.18310547,0.01171875,-0.035888672,-1.0202637,0.003295898,-0.6262207,0.515625,147
0.8087158,2.7160645,0.18310547,0.011230469,-0.036376953,-1.0202637,0.003295898,-0.6262207,0.515625,148
0.9613037,3.768921,0.22888184,0.011230469,-0.036132812,-1.0205078,0.003295898,-0.6251221,0.5152588,149
0.76293945,2.960205,-0.076293945,0.01171875,-0.036132812,-1.0202637,0.002563477,-0.6251221,0.5152588,150
0.5187988,3.0975342,-0.12207031,0.01171875,-0.036132812,-1.0202637,0.002563477,-0.6251221,0.5152588,151
0.79345703,3.0975342,0.16784668,0.012451172,-0.036621094,-1.0197754,0.005126953,-0.6265869,0.51342773,152
0.6713867,3.3416748,0.32043457,0.011962891,-0.036621094,-1.0200195,0.005126953,-0.6265869,0.51342773,153
0.24414062,3.2653809,0.289917,0.011474609,-0.036621094,-1.0200195,0.005493164,-0.6262207,0.51379395,154
0.7171631,3.0059814,0.22888184,0.01171875,-0.036132812,-1.0202637,0.005493164,-0.6262207,0.51379395,155
0.62561035,2.9907227,0.289917,0.012207031,-0.036376953,-1.0200195,0.005493164,-0.6262207,0.51379395,156
0.45776367,3.1280518,-0.091552734,0.01171875,-0.036621094,-1.0202637,0.000366211,-0.62805176,0.5192871,157
0.2746582,2.9754639,0.015258789,0.011962891,-0.036132812,-1.0200195,0.000366211,-0.62805176,0.5192871,158
0.61035156,3.3416748,0.061035156,0.011962891,-0.035888672,-1.0202637,0.004394531,-0.6258545,0.5148926,159
0.8544922,3.1280518,-0.15258789,0.011474609,-0.036132812,-1.0205078,0.004394531,-0.6258545,0.5148926,160
0.5645752,3.0059814,0.45776367,0.011230469,-0.035888672,-1.0202637,0.004394531,-0.6258545,0.5148926,161
0.8239746,2.8686523,0.2593994,0.011474609,-0.035888672,-1.0205078,-0.000732422,-0.6287842,0.5185547,162
0.7019043,3.036499,0.015258789,0.01171875,-0.035888672,-1.0205078,-0.000732422,-0.6287842,0.5185547,163
0.62561035,2.9754639,0.2593994,0.01171875,-0.036132812,-1.0202637,0.000732422,-0.62402344,0.51379395,164
0.869751,3.0517578,0.2593994,0.011962891,-0.03564453,-1.0202637,0.000732422,-0.62402344,0.51379395,165
1.0223389,2.8686523,0.36621094,0.011962891,-0.03564453,-1.0205078,0.000732422,-0.62402344,0.51379395,166
1.159668,3.1585693,0.22888184,0.011474609,-0.036132812,-1.0200195,0.003662109,-0.6262207,0.5126953,167
0.8544922,3.0670166,0.16784668,0.010986328,-0.036621094,-1.0202637,0.003662109,-0.6262207,0.5126953,168
0.61035156,2.5177002,0.2593994,0.011230469,-0.036621094,-1.0197754,0.004760742,-0.62805176,0.51123047,169
0.579834,2.7160645,0.36621094,0.011230469,-0.036621094,-1.0197754,0.004760742,-0.62805176,0.51123047,170
0.5493164,3.3111572,0.289917,0.012207031,-0.036621094,-1.0205078,0.004760742,-0.62805176,0.515625,171
0.79345703,2.9754639,0,0.012451172,-0.036376953,-1.0205078,0.005126953,-0.62768555,0.515625,172
0.9765625,2.6855469,0.2593994,0.012207031,-0.036376953,-1.0209961,0.005126953,-0.62768555,0.515625,173
0.76293945,3.3569336,0.015258789,0.012451172,-0.036621094,-1.0209961,0.006225586,-0.6262207,0.51416016,174
0.7019043,3.7231445,0.35095215,0.011962891,-0.036132812,-1.020752,0.006225586,-0.6262207,0.51416016,175
0.6561279,3.2348633,0.18310547,0.01171875,-0.036132812,-1.0205078,0.005859375,-0.6262207,0.5185547,176
1.2512207,2.532959,3.8757324,0.01171875,-0.036376953,-1.0205078,0.005859375,-0.6262207,0.5185547,177
0.61035156,3.3874512,0.19836426,0.011474609,-0.036132812,-1.0200195,0.005859375,-0.6262207,0.5185547,178
0.6713867,3.1585693,-0.1373291,0.01171875,-0.036621094,-1.0202637,0.004394531,-0.6236572,0.51745605,179
0.79345703,2.609253,0.30517578,0.011474609,-0.036621094,-1.0205078,0.004394531,-0.6236572,0.51745605,180
0.48828125,2.8839111,-0.12207031,0.011230469,-0.036621094,-1.020752,0.005493164,-0.62731934,0.5148926,181
0.7019043,3.0975342,0.2593994,0.01171875,-0.036132812,-1.0209961,0.005493164,-0.62731934,0.5148926,182
0.8239746,2.9907227,0.10681152,0.011962891,-0.036132812,-1.0202637,0.005493164,-0.62731934,0.5148926,183
0.90026855,2.7313232,0.2746582,0.012207031,-0.036376953,-1.0195312,0.004394531,-0.6254883,0.51708984,184
0.4272461,3.1433105,0.12207031,0.012207031,-0.036865234,-1.0195312,0.004394531,-0.6254883,0.51708984,185
0.77819824,3.3721924,0.18310547,0.012451172,-0.036621094,-1.0197754,0.001831055,-0.62475586,0.51745605,186
0.62561035,3.189087,-0.1373291,0.011962891,-0.036621094,-1.0202637,0.001831055,-0.62475586,0.51745605,187
0.61035156,2.8839111,0.36621094,0.011962891,-0.036376953,-1.0202637,0.001831055,-0.62475586,0.51745605,188
0.47302246,3.1738281,0.2746582,0.012207031,-0.036621094,-1.0212402,0.002197266,-0.6254883,0.5152588,189
1.083374,2.8839111,0.091552734,0.011962891,-0.036376953,-1.0214844,0.002197266,-0.6254883,0.5152588,190
0.39672852,2.8076172,0.1373291,0.012451172,-0.036376953,-1.020752,0.008789063,-0.6269531,0.51416016,191
0.62561035,3.0670166,0.2746582,0.011962891,-0.036376953,-1.0205078,0.008789063,-0.6269531,0.51416016,192
0.9918213,2.960205,0.061035156,0.011962891,-0.036376953,-1.0209961,0.008789063,-0.6262207,0.51745605,193
0.36621094,3.40271,0.30517578,0.011474609,-0.036865234,-1.0200195,0.006591797,-0.6262207,0.51745605,194
0.5493164,2.9296875,-0.35095215,0.01171875,-0.036621094,-1.0200195,0.006591797,-0.6262207,0.51745605,195
0.88500977,3.036499,0.091552734,0.011474609,-0.035888672,-1.0195312,0.005493164,-0.62731934,0.5152588,196
0.5340576,2.8686523,0.15258789,0.01171875,-0.03564453,-1.0195312,0.005493164,-0.62731934,0.5152588,197
1.0070801,2.8381348,-0.045776367,0.011962891,-0.035888672,-1.0205078,0.005493164,-0.6269531,0.5196533,198
0.9613037,2.8686523,0.19836426,0.011962891,-0.036621094,-1.020752,0.001464844,-0.6269531,0.5196533,199
0.8544922,3.112793,0.18310547,0.011962891,-0.036132812,-1.0202637,0.001464844,-0.6269531,0.5196533,200
0.36621094,2.8533936,0.19836426,0.01171875,-0.036376953,-1.0205078,0.003295898,-0.6254883,0.5185547,201
0.8392334,2.960205,-0.015258789,0.012207031,-0.036865234,-1.0214844,0.003295898,-0.6254883,0.5185547,202
0.79345703,3.326416,0.19836426,0.012207031,-0.036376953,-1.0209961,0.005126953,-0.6262207,0.5115967,203
0.77819824,3.2043457,0.32043457,0.012207031,-0.035888672,-1.0202637,0.005126953,-0.6262207,0.5115967,204
0.6561279,2.456665,0.2746582,0.012451172,-0.03564453,-1.0202637,0.005126953,-0.6262207,0.5115967,205
0.9918213,3.0822754,0.015258789,0.011962891,-0.03564453,-1.0195312,0.005859375,-0.6251221,0.5159912,206
0.6866455,2.6855469,0.32043457,0.011474609,-0.036132812,-1.0197754,0.005859375,-0.6251221,0.5159912,207
0.36621094,2.746582,0.030517578,0.011474609,-0.036376953,-1.0202637,0.004760742,-0.6265869,0.51782227,208
1.1749268,2.8381348,0.2746582,0.01171875,-0.036621094,-1.0200195,0.004760742,-0.6265869,0.51782227,209
0.64086914,3.3721924,0.2746582,0.01171875,-0.036132812,-1.0205078,0.004760742,-0.6265869,0.51782227,210
1.0528564,3.1280518,0.076293945,0.01171875,-0.036376953,-1.0202637,0.006591797,-0.6236572,0.515625,211
0.79345703,3.2196045,-0.19836426,0.011962891,-0.035888672,-1.0202637,0.006591797,-0.6236572,0.515625,212
0.77819824,3.0517578,0.1373291,0.011962891,-0.036132812,-1.0200195,0.002563477,-0.6225586,0.5181885,213
0.7171631,3.0670166,0.015258789,0.012451172,-0.036376953,-1.0205078,0.002563477,-0.6225586,0.5181885,214
1.1138916,2.7770996,0.32043457,0.012207031,-0.036132812,-1.020752,0.002563477,-0.6225586,0.5181885,215
0.9613037,2.8076172,0.061035156,0.011962891,-0.03564453,-1.0212402,-0.000732422,-0.6258545,0.51672363,216
0.50354004,2.7160645,0.21362305,0.011962891,-0.035888672,-1.0212402,-0.000732422,-0.6258545,0.51672363,217
0.5340576,3.2043457,-0.015258789,0.012451172,-0.036132812,-1.0205078,0.001464844,-0.6254883,0.51708984,218
0.579834,3.5095215,0.50354004,0.011962891,-0.036621094,-1.020752,0.001464844,-0.6254883,0.51708984,219
0.36621094,2.4261475,0.16784668,0.012207031,-0.036621094,-1.0205078,-0.002929688,-0.62438965,0.5185547,220
0.4272461,3.112793,0.35095215,0.011962891,-0.036865234,-1.0202637,-0.002929688,-0.62438965,0.5185547,221
0.579834,3.3874512,0.35095215,0.01171875,-0.036621094,-1.0209961,-0.002929688,-0.62438965,0.5185547,222
0.47302246,2.7770996,0.4272461,0.011962891,-0.036865234,-1.020752,0.002929688,-0.6254883,0.5185547,223
0.91552734,2.8076172,0.19836426,0.012451172,-0.036376953,-1.020752,0.002929688,-0.6254883,0.5185547,224
0.6713867,2.89917,0.32043457,0.012207031,-0.036132812,-1.0212402,0.000366211,-0.6229248,0.5192871,225
0.6866455,3.1585693,0.39672852,0.011962891,-0.036621094,-1.0212402,0.000366211,-0.6229248,0.5192871,226
0.8544922,3.2348633,0.10681152,0.01171875,-0.036621094,-1.0205078,0.000366211,-0.6229248,0.5192871,227
0.869751,3.0822754,-0.015258789,0.011230469,-0.036865234,-1.0202637,0.000366211,-0.62731934,0.515625,228
0.579834,2.9144287,0.18310547,0.011474609,-0.036865234,-1.0202637,0.000366211,-0.62731934,0.515625,229
0.38146973,2.7923584,0.15258789,0.01171875,-0.035888672,-1.0202637,0.001831055,-0.6269531,0.5192871,230
0.7171631,3.3416748,0.1373291,0.011962891,-0.035888672,-1.0205078,0.001831055,-0.6269531,0.5192871,231
0.62561035,2.960205,0.10681152,0.011962891,-0.035888672,-1.0205078,0.001831055,-0.6269531,0.5192871,232
1.0223389,2.9907227,0.061035156,0.011474609,-0.036621094,-1.0205078,0.002563477,-0.62402344,0.5189209,233
0.5493164,2.7923584,0.45776367,0.01171875,-0.036621094,-1.0209961,0.002563477,-0.62402344,0.5189209,234
0.32043457,3.326416,0.091552734,0.01171875,-0.036132812,-1.0205078,0.002197266,-0.62805176,0.5159912,235
0.76293945,2.5787354,0.24414062,0.012207031,-0.036865234,-1.0202637,0.002197266,-0.62805176,0.5159912,236
0.2593994,3.3416748,0.47302246,0.012207031,-0.037109375,-1.020752,0.002197266,-0.62805176,0.5159912,237
0.7019043,3.2653809,-0.1373291,0.01171875,-0.036865234,-1.0205078,0.001464844,-0.6254883,0.5189209,238
0.5340576,3.326416,0.091552734,0.011474609,-0.035888672,-1.0205078,0.001464844,-0.6254883,0.5189209,239
0.5950928,3.0517578,0.19836426,0.011962891,-0.036376953,-1.0202637,0.000366211,-0.6254883,0.5181885,240
0.76293945,3.112793,0.289917,0.01171875,-0.036376953,-1.0200195,0.000366211,-0.6254883,0.5181885,241
0.6866455,2.9144287,0.50354004,0.011962891,-0.036865234,-1.0195312,0.000366211,-0.6254883,0.51708984,242
0.6713867,2.9754639,0.39672852,0.012451172,-0.036376953,-1.0192871,-0.001098633,-0.6251221,0.51708984,243
0.16784668,3.0212402,0.18310547,0.012451172,-0.036621094,-1.0202637,-0.001098633,-0.6251221,0.51708984,244
0.8087158,3.3111572,-0.10681152,0.011962891,-0.036132812,-1.0205078,-0.009521484,-0.6218262,0.51708984,245
0.77819824,2.9754639,0.030517578,0.01171875,-0.035888672,-1.0200195,-0.009521484,-0.6218262,0.51708984,246
0.48828125,3.0975342,0.38146973,0.011474609,-0.036376953,-1.0202637,-0.000366211,-0.62402344,0.5163574,247
0.6561279,2.9144287,0.39672852,0.011474609,-0.036376953,-1.020752,-0.000366211,-0.62402344,0.5163574,248
0.35095215,3.036499,0.18310547,0.011474609,-0.036621094,-1.0197754,-0.000366211,-0.62402344,0.5163574,249
0.5950928,3.036499,0.15258789,0.01171875,-0.037109375,-1.0202637,-0.006958008,-0.6254883,0.5192871,250
0.16784668,2.89917,0.12207031,0.011474609,-0.037109375,-1.0200195,-0.006958008,-0.6254883,0.5192871,251
1.083374,2.9296875,0,0.011474609,-0.037109375,-1.0195312,-0.002197266,-0.62475586,0.51379395,252
0.9765625,3.112793,0.16784668,0.012451172,-0.037109375,-1.0197754,-0.002197266,-0.62475586,0.51379395,253
0.6866455,3.0975342,0.32043457,0.012207031,-0.036865234,-1.0192871,-0.002197266,-0.62475586,0.51379395,254
0.77819824,2.9144287,3.8452148,0.01171875,-0.036865234,-1.0192871,-0.002563477,-0.623291,0.515625,255
0.74768066,3.0822754,0.33569336,0.011962891,-0.036621094,-1.0197754,-0.002563477,-0.623291,0.515625,0
0.7019043,3.3874512,0.24414062,0.011474609,-0.036376953,-1.0205078,-0.001464844,-0.6262207,0.52001953,1
1.2664795,2.5939941,0.32043457,0.01171875,-0.035888672,-1.0202637,-0.001464844,-0.6262207,0.52001953,2
0.7171631,2.5939941,0.33569336,0.011962891,-0.035888672,-1.0202637,-0.001464844,-0.6262207,0.52001953,3
0.7019043,2.5787354,-0.12207031,0.01171875,-0.036376953,-1.0205078,-0.000732422,-0.6251221,0.5196533,4
0.36621094,3.0517578,0.38146973,0.011230469,-0.036376953,-1.0202637,-0.000732422,-0.6251221,0.5196533,5
0.45776367,3.7994385,-0.12207031,0.010986328,-0.036376953,-1.0202637,-0.003662109,-0.62438965,0.52038574,6
0.62561035,2.4871826,0.5645752,0.011230469,-0.036621094,-1.0195312,-0.003662109,-0.62438965,0.52038574,7
0.6561279,2.9144287,-0.045776367,0.012207031,-0.036621094,-1.0200195,-0.003662109,-0.62438965,0.52038574,8
0.5340576,3.3569336,0.076293945,0.01171875,-0.036376953,-1.0202637,0.005126953,-0.6251221,0.51672363,9
0.8239746,2.4871826,0.15258789,0.012451172,-0.036132812,-1.0205078,0.005126953,-0.6251221,0.51672363,10
0.9613037,2.9144287,0.21362305,0.012207031,-0.036132812,-1.0202637,0.000366211,-0.6262207,0.5130615,11
0.8239746,2.6245117,0.015258789,0.01171875,-0.036132812,-1.0200195,0.000366211,-0.6262207,0.5130615,12
0.77819824,2.8076172,0.1373291,0.01171875,-0.036132812,-1.0200195,0.092285156,-0.6251221,0.5159912,13
0.4272461,2.89917,0.12207031,0.011962891,-0.036132812,-1.0200195,-0.001464844,-0.6251221,0.5159912,14
0.39672852,2.9449463,-0.015258789,0.01171875,-0.03564453,-1.0202637,-0.001464844,-0.6251221,0.5159912,15
0.74768066,3.0822754,0.33569336,0.01171875,-0.036132812,-1.0202637,-0.001464844,-0.6258545,0.51452637,16
0.6713867,2.7770996,-0.12207031,0.01171875,-0.03564453,-1.0202637,-0.001464844,-0.6258545,0.51452637,17
0.6561279,3.1585693,0.061035156,0.011474609,-0.036132812,-1.0205078,0.003295898,-0.62731934,0.5130615,18
0.64086914,2.7770996,-0.22888184,0.01171875,-0.036621094,-1.0195312,0.003295898,-0.62731934,0.5130615,19
0.6713867,2.8533936,0.21362305,0.012207031,-0.036621094,-1.0197754,0.003295898,-0.62731934,0.5130615,20
0.869751,3.0822754,-0.12207031,0.012451172,-0.036621094,-1.0197754,-0.000732422,-0.6254883,0.51416016,21
0.579834,3.2196045,0.45776367,0.011962891,-0.036621094,-1.0197754,-0.000732422,-0.6254883,0.51416016,22
0.7324219,3.0975342,0.1373291,0.011474609,-0.036376953,-1.0197754,-0.005493164,-0.6258545,0.51416016,23
0.6866455,3.2806396,0.091552734,0.011962891,-0.036132812,-1.0192871,-0.005493164,-0.6258545,0.51416016,24
0.88500977,3.3569336,3.768921,0.011962891,-0.03564453,-1.0197754,-0.005493164,-0.6258545,0.51416016,25
0.6866455,3.2043457,0.12207031,0.011230469,-0.035888672,-1.0202637,-0.000732422,-0.6254883,0.51708984,26
0.5340576,3.4179688,0.045776367,0.011230469,-0.036376953,-1.0195312,-0.000732422,-0.6254883,0.51708984,27
0.79345703,3.0670166,0.35095215,0.011230469,-0.036621094,-1.0197754,0.005126953,-0.6236572,0.5185547,28
0.7019043,3.0822754,0.15258789,0.011962891,-0.036865234,-1.0202637,0.005126953,-0.6236572,0.5185547,29
0.21362305,2.6855469,-0.12207031,0.011962891,-0.036865234,-1.0200195,0.003662109,-0.6265869,0.51745605,30
1.2664795,3.1738281,0.16784668,0.012207031,-0.036376953,-1.0192871,0.003662109,-0.6265869,0.51745605,31
0.6866455,2.9144287,-0.015258789,0.012207031,-0.035888672,-1.019043,0.003662109,-0.6265869,0.51745605,32
0.5493164,2.9907227,0.076293945,0.011962891,-0.03564453,-1.0192871,0.00402832,-0.6258545,0.5152588,33
0.2746582,2.960205,0.045776367,0.011962891,-0.036376953,-1.0195312,0.00402832,-0.6258545,0.5152588,34
0.5493164,3.0822754,0.1373291,0.01171875,-0.036376953,-1.0195312,0.00402832,-0.62072754,0.515625,35
0.7019043,3.1585693,0.48828125,0.011962891,-0.03564453,-1.0202637,0.006591797,-0.62072754,0.515625,36
0.93078613,3.0212402,0.16784668,0.012451172,-0.036132812,-1.0205078,0.006591797,-0.62072754,0.515625,37
0.76293945,2.6397705,0.076293945,0.01171875,-0.03564453,-1.0205078,0.002197266,-0.6229248,0.51782227,38
0.4119873,2.9754639,0.21362305,0.010986328,-0.035888672,-1.0205078,0.002197266,-0.6229248,0.51782227,39
0.5950928,2.9144287,0.38146973,0.011962891,-0.036621094,-1.0205078,0.005859375,-0.6225586,0.5148926,40
1.0223389,3.1433105,0,0.011230469,-0.036621094,-1.0197754,0.005859375,-0.6225586,0.5148926,41
0.5645752,3.112793,0.19836426,0.011474609,-0.036621094,-1.0197754,0.005859375,-0.6225586,0.5148926,42
0.93078613,3.0975342,0.61035156,0.01171875,-0.036621094,-1.0195312,0.005493164,-0.623291,0.51452637,43
0.5340576,3.112793,0.289917,0.01171875,-0.036376953,-1.0197754,0.005493164,-0.623291,0.51452637,44
0.9613037,3.0059814,-3.6315918,0.011962891,-0.036621094,-1.0205078,0.006225586,-0.62438965,0.51342773,45
0.91552734,3.4179688,0.12207031,0.011962891,-0.036132812,-1.0200195,0.006225586,-0.62438965,0.51342773,46
1.2207031,3.2348633,0.30517578,0.011962891,-0.036132812,-1.0197754,0.006225586,-0.62438965,0.51342773,47
0.9918213,3.463745,0.091552734,0.011474609,-0.036132812,-1.0200195,0.003295898,-0.62402344,0.51342773,48
0.9765625,3.3111572,0.045776367,0.011230469,-0.036132812,-1.0202637,0.003295898,-0.62402344,0.51342773,49
0.9460449,3.5705566,0.4272461,0.011474609,-0.035888672,-1.0200195,0.003662109,-0.62841797,0.5159912,50
0.4272461,3.0059814,0.35095215,0.01171875,-0.035888672,-1.0195312,0.003662109,-0.62841797,0.5159912,51
0.869751,3.40271,0.1373291,0.012207031,-0.035888672,-1.0202637,0.003662109,-0.62841797,0.5159912,52
0.79345703,3.0517578,0.289917,0.011962891,-0.036376953,-1.0205078,0.002563477,-0.6269531,0.51782227,53
0.5340576,2.8076172,0.22888184,0.01171875,-0.036621094,-1.0205078,0.002563477,-0.6269531,0.51782227,54
0.30517578,3.40271,0.38146973,0.011474609,-0.036621094,-1.020752,0.003295898,-0.6258545,0.5159912,55
0.91552734,3.2196045,0.2746582,0.011474609,-0.036865234,-1.0209961,0.003295898,-0.6258545,0.5159912,56
0.36621094,2.9144287,0.33569336,0.011474609,-0.036132812,-1.0202637,0.003295898,-0.6287842,0.5189209,57
0.8087158,2.9449463,0.1373291,0.012451172,-0.036132812,-1.0205078,0.000732422,-0.6287842,0.5189209,58
0.8087158,2.5787354,0.39672852,0.012207031,-0.036132812,-1.0200195,0.000732422,-0.6287842,0.5189209,59
1.083374,2.8839111,0.10681152,0.011474609,-0.036621094,-1.0200195,0.004760742,-0.6225586,0.51416016,60
0.64086914,3.3111572,0.12207031,0.011474609,-0.036865234,-1.0200195,0.004760742,-0.6225586,0.51416016,61
0.36621094,2.9449463,0.045776367,0.01171875,-0.036865234,-1.020752,0.004394531,-0.62402344,0.5148926,62
0.7171631,2.8076172,0.10681152,0.01171875,-0.036132812,-1.0205078,0.004394531,-0.62402344,0.5148926,63
0.6561279,3.2348633,-0.030517578,0.012207031,-0.036621094,-1.0202637,0.004394531,-0.62402344,0.5148926,64
0.8239746,2.9754639,0.061035156,0.01171875,-0.036132812,-1.0202637,0.001831055,-0.6258545,0.51379395,65
0.9918213,2.9907227,0.5187988,0.011474609,-0.036621094,-1.020752,0.001831055,-0.6258545,0.51379395,66
0.579834,2.8076172,0.22888184,0.011474609,-0.036376953,-1.0202637,0.001098633,-0.6254883,0.51342773,67
0.74768066,3.1433105,0.33569336,0.011230469,-0.036621094,-1.0200195,0.001098633,-0.6254883,0.51342773,68
0.579834,2.6855469,3.829956,0.011230469,-0.036376953,-1.0200195,0.001098633,-0.6254883,0.51342773,69
0.77819824,2.7770996,0.4272461,0.011230469,-0.036132812,-1.0202637,0.002563477,-0.62768555,0.5185547,70
0.30517578,2.9296875,-0.15258789,0.011962891,-0.035888672,-1.020752,0.002563477,-0.62768555,0.5185547,71
0.50354004,3.463745,-0.18310547,0.012207031,-0.036621094,-1.0212402,0.002563477,-0.6262207,0.51379395,72
0.7171631,3.112793,0.091552734,0.011962891,-0.036376953,-1.0205078,0.002563477,-0.6262207,0.51379395,73
0.4272461,3.0059814,0.015258789,0.01171875,-0.036621094,-1.0200195,0.002563477,-0.6262207,0.51379395,74
0.15258789,2.960205,0.16784668,0.012207031,-0.036621094,-1.0200195,0.00402832,-0.62805176,0.5152588,75
0.5340576,2.8076172,0.18310547,0.012695313,-0.036865234,-1.0200195,0.00402832,-0.62805176,0.5152588,76
0.8544922,3.0975342,0.061035156,0.011962891,-0.036865234,-1.0197754,0.001098633,-0.6236572,0.5115967,77
0.32043457,3.2653809,0.21362305,0.012207031,-0.036132812,-1.0200195,0.001098633,-0.6236572,0.5115967,78
0.289917,3.2196045,0.21362305,0.011962891,-0.036376953,-1.0202637,0.001098633,-0.6236572,0.5152588,79
0.48828125,2.822876,0.061035156,0.01171875,-0.036621094,-1.0197754,0.005859375,-0.62438965,0.5152588,80
0.2746582,3.0517578,0.061035156,0.011474609,-0.036132812,-1.0195312,0.005859375,-0.62438965,0.5152588,81
0.64086914,3.189087,0.33569336,0.010986328,-0.036621094,-1.0197754,0.002563477,-0.6265869,0.51452637,82
0.869751,3.1738281,0.33569336,0.011474609,-0.036865234,-1.0202637,0.002563477,-0.6265869,0.51452637,83
0.44250488,3.1585693,-0.045776367,0.012451172,-0.037109375,-1.020752,-0.000732422,-0.62841797,0.51123047,84
0.9460449,3.1738281,0,0.011962891,-0.036621094,-1.020752,-0.000732422,-0.62841797,0.51123047,85
0.93078613,3.2653809,0.076293945,0.011962891,-0.036132812,-1.0214844,-0.000732422,-0.62841797,0.51123047,86
0.5950928,3.2043457,0.33569336,0.01171875,-0.036865234,-1.0212402,0.000366211,-0.62475586,0.51672363,87
0.869751,3.0517578,0.32043457,0.011230469,-0.036865234,-1.0202637,0.000366211,-0.62475586,0.51672363,88
0.93078613,2.960205,0.030517578,0.011230469,-0.036376953,-1.0205078,0.001464844,-0.6251221,0.5115967,89
0.289917,3.4484863,0.12207031,0.011230469,-0.036621094,-1.0202637,0.001464844,-0.6251221,0.5115967,90
0.4119873,2.822876,0.061035156,0.011230469,-0.036376953,-1.0205078,0.001464844,-0.6251221,0.5115967,91
0.48828125,2.6855469,0.2593994,0.011474609,-0.036132812,-1.020752,0.006591797,-0.6258545,0.51049805,92
0.5340576,3.0517578,-3.7994385,0.011962891,-0.035888672,-1.0205078,0.006591797,-0.6258545,0.51049805,93
0.869751,2.9754639,0.045776367,0.012207031,-0.036376953,-1.020752,0.00402832,-0.6236572,0.51342773,94
0.5950928,2.9449463,-3.7231445,0.012207031,-0.036376953,-1.0202637,0.00402832,-0.6236572,0.51342773,95
0.47302246,2.7770996,-0.091552734,0.011962891,-0.036376953,-1.0205078,0.00402832,-0.6236572,0.51342773,96
0.79345703,3.2958984,0.289917,0.01171875,-0.036621094,-1.0205078,0.004760742,-0.62402344,0.51379395,97
0.6866455,2.89917,0.44250488,0.011474609,-0.036376953,-1.0202637,0.004760742,-0.62402344,0.51379395,98
0.5340576,3.0975342,0.16784668,0.011474609,-0.036376953,-1.0200195,0.004394531,-0.6269531,0.51416016,99
0.36621094,3.1433105,-0.36621094,0.011474609,-0.036621094,-1.0202637,0.004394531,-0.6269531,0.51416016,100
0.77819824,2.8533936,0.16784668,0.01171875,-0.036621094,-1.0205078,0.004394531,-0.6269531,0.51416016,101
0.8239746,2.7923584,0.47302246,0.011230469,-0.036621094,-1.0200195,0.00402832,-0.6254883,0.5126953,102
0.76293945,3.250122,0.16784668,0.011230469,-0.036621094,-1.0205078,0.00402832,-0.6254883,0.5126953,103
0.6866455,3.4179688,0.15258789,0.011962891,-0.036865234,-1.020752,0.002929688,-0.6254883,0.515625,104
0.7324219,3.326416,-0.1373291,0.011962891,-0.036376953,-1.020752,0.002929688,-0.6254883,0.515625,105
0.6866455,3.112793,-0.10681152,0.011230469,-0.036376953,-1.0209961,0.002929688,-0.6265869,0.51782227,106
0.35095215,3.463745,0.30517578,0.01171875,-0.036132812,-1.0202637,0.005859375,-0.6265869,0.51782227,107
0.4272461,3.2348633,0.076293945,0.012207031,-0.036376953,-1.0205078,0.005859375,-0.6265869,0.51782227,108
0.44250488,3.1280518,-0.030517578,0.011962891,-0.036621094,-1.0205078,0.004760742,-0.6251221,0.5097656,109
0.91552734,2.960205,0.030517578,0.01171875,-0.036865234,-1.0200195,0.004760742,-0.6251221,0.5097656,110
0.50354004,2.960205,-0.15258789,0.011962891,-0.036621094,-1.0205078,-0.000366211,-0.62768555,0.51049805,111
0.5187988,3.479004,0.076293945,0.011962891,-0.036621094,-1.0205078,-0.000366211,-0.62768555,0.51049805,112
0.61035156,3.3569336,0.061035156,0.012207031,-0.037109375,-1.0205078,-0.000366211,-0.62768555,0.51049805,113
0.32043457,2.609253,-0.015258789,0.01171875,-0.036376953,-1.0202637,-0.00402832,-0.62402344,0.5097656,114
0.61035156,2.609253,0.1373291,0.011962891,-0.036132812,-1.0202637,-0.00402832,-0.62402344,0.5097656,115
0.6713867,3.2043457,0.15258789,0.012451172,-0.036376953,-1.0202637,0.002197266,-0.62475586,0.5163574,116
0.7019043,2.8686523,-3.90625,0.01171875,-0.036132812,-1.0200195,0.002197266,-0.62475586,0.5163574,117
0.9460449,3.2043457,0.061035156,0.011962891,-0.036376953,-1.0200195,0.002197266,-0.62475586,0.5163574,118
0.8239746,3.1585693,0,0.011962891,-0.036132812,-1.0202637,0.004760742,-0.6254883,0.5148926,119
0.7019043,2.9296875,-3.8452148,0.012207031,-0.036376953,-1.0200195,0.004760742,-0.6254883,0.5148926,120
0.6561279,3.4332275,-0.1373291,0.011962891,-0.036376953,-1.0202637,0.005859375,-0.62731934,0.51123047,121
0.6713867,3.0822754,0.18310547,0.012695313,-0.036621094,-1.0205078,0.005859375,-0.62731934,0.51123047,122
0.7324219,3.0059814,0.21362305,0.011962891,-0.037109375,-1.0202637,0.005859375,-0.62731934,0.5130615,123
0.6561279,3.2653809,0.045776367,0.01171875,-0.036865234,-1.020752,0.002929688,-0.6254883,0.5130615,124
1.4190674,3.3416748,0.16784668,0.011962891,-0.036621094,-1.0202637,0.002929688,-0.6254883,0.5130615,125
0.64086914,2.7313232,-0.061035156,0.011962891,-0.036621094,-1.0205078,0.001098633,-0.6254883,0.51379395,126
0.5493164,3.2806396,0.39672852,0.011962891,-0.036376953,-1.020752,0.001098633,-0.6254883,0.51379395,127
0.4272461,3.2958984,0.21362305,0.01171875,-0.036621094,-1.020752,0.001098633,-0.6229248,0.51452637,128
0.5187988,2.7923584,0.35095215,0.01171875,-0.036376953,-1.0205078,0.001464844,-0.6229248,0.51452637,129
0.36621094,3.40271,3.8909912,0.012451172,-0.036621094,-1.0202637,0.001464844,-0.6229248,0.51452637,130
0.6561279,2.7313232,0.1373291,0.012451172,-0.036621094,-1.0205078,0.001464844,-0.62402344,0.51342773,131
0.6561279,3.1280518,0.19836426,0.012695313,-0.036132812,-1.0200195,0.001464844,-0.62402344,0.51342773,132
0.5493164,2.7313232,0.30517578,0.011962891,-0.036132812,-1.0200195,-0.000732422,-0.62475586,0.5130615,133
0.9613037,2.9296875,-0.045776367,0.012207031,-0.035888672,-1.0205078,-0.000732422,-0.62475586,0.5130615,134
0.5645752,3.2958984,0.15258789,0.012207031,-0.036865234,-1.0205078,-0.000732422,-0.62475586,0.5130615,135
0.8392334,2.9144287,0.19836426,0.012207031,-0.036621094,-1.020752,0.003295898,-0.6203613,0.5119629,136
0.8544922,2.8381348,0.12207031,0.012207031,-0.036865234,-1.0205078,0.003295898,-0.6203613,0.5119629,137
0.10681152,3.036499,0.4119873,0.011474609,-0.036865234,-1.0202637,-0.001098633,-0.6236572,0.5115967,138
0.50354004,2.9296875,0.4119873,0.01171875,-0.036621094,-1.0202637,-0.001098633,-0.6236572,0.5115967,139
0.2746582,2.822876,0.6561279,0.011962891,-0.036865234,-1.0200195,-0.001098633,-0.6236572,0.5115967,140
0.64086914,3.189087,0.21362305,0.011962891,-0.036376953,-1.0202637,0.000732422,-0.6258545,0.51342773,141
0.32043457,2.9449463,0.24414062,0.01171875,-0.036865234,-1.0202637,0.000732422,-0.6258545,0.51342773,142
0.579834,2.746582,-0.10681152,0.011474609,-0.036865234,-1.0202637,0.005126953,-0.6265869,0.51123047,143
0.74768066,3.2043457,0.15258789,0.011474609,-0.036865234,-1.0205078,0.005126953,-0.6265869,0.51123047,144
1.0528564,3.6468506,0.091552734,0.012207031,-0.037109375,-1.0202637,0.005126953,-0.6265869,0.51123047,145
0.62561035,2.89917,0.5187988,0.011962891,-0.036376953,-1.0205078,-0.001464844,-0.6262207,0.5152588,146
0.6713867,2.9907227,0.44250488,0.011962891,-0.036376953,-1.0200195,-0.001464844,-0.6262207,0.5152588,147
0.64086914,2.670288,0.6866455,0.011962891,-0.036132812,-1.0200195,0.001098633,-0.6221924,0.51782227,148
1.0681152,2.9296875,0.015258789,0.012207031,-0.036376953,-1.0202637,0.001098633,-0.6221924,0.51782227,149
0.47302246,3.036499,0.44250488,0.012451172,-0.035888672,-1.0202637,0.001098633,-0.623291,0.51416016,150
0.5493164,3.3416748,3.8757324,0.012207031,-0.036132812,-1.0200195,0.001098633,-0.623291,0.51416016,151
0.38146973,2.9907227,-0.16784668,0.011962891,-0.036132812,-1.0197754,0.001098633,-0.623291,0.51416016,152
1.083374,2.8076172,0.19836426,0.011962891,-0.036376953,-1.0202637,-0.000732422,-0.6218262,0.51379395,153
0.6713867,3.3111572,0.18310547,0.011962891,-0.036376953,-1.020752,-0.000732422,-0.6218262,0.51379395,154
0.8087158,3.1738281,0.076293945,0.01171875,-0.035888672,-1.020752,0.002197266,-0.6225586,0.5130615,155
1.1901855,3.326416,0.076293945,0.011474609,-0.035888672,-1.0200195,0.002197266,-0.6225586,0.5130615,156
0.35095215,2.9449463,0.030517578,0.010986328,-0.03540039,-1.0197754,0.002197266,-0.6225586,0.5130615,157
0.6713867,3.4179688,0.030517578,0.010498047,-0.036132812,-1.0197754,0.000732422,-0.6236572,0.5152588,158
1.083374,3.0670166,0.12207031,0.011230469,-0.036132812,-1.0200195,0.000732422,-0.6236572,0.5152588,159
0.47302246,3.2653809,0.21362305,0.011474609,-0.036376953,-1.0200195,0.004760742,-0.62402344,0.51379395,160
0.79345703,2.9296875,0.33569336,0.01171875,-0.036376953,-1.0200195,0.004760742,-0.62402344,0.51379395,161
0.91552734,2.7618408,0.2593994,0.011962891,-0.036132812,-1.0202637,0.004760742,-0.62402344,0.51379395,162
1.2512207,3.0975342,0.12207031,0.011474609,-0.036132812,-1.0200195,0.001831055,-0.6251221,0.51379395,163
1.0223389,3.5858154,0.289917,0.01171875,-0.036132812,-1.0202637,0.001831055,-0.6251221,0.51379395,164
0.48828125,2.8533936,-3.7841797,0.011962891,-0.036621094,-1.0202637,0.002563477,-0.6236572,0.5119629,165
0.79345703,3.0822754,0.21362305,0.011474609,-0.036376953,-1.0202637,0.002563477,-0.6236572,0.5119629,166
0.39672852,3.326416,0.1373291,0.011474609,-0.036376953,-1.0202637,0.002563477,-0.6236572,0.5119629,167
0.62561035,3.3111572,3.8757324,0.011474609,-0.036621094,-1.0205078,0.001831055,-0.62402344,0.5148926,168
0.579834,3.3111572,0.18310547,0.011962891,-0.036376953,-1.0202637,0.001831055,-0.62402344,0.5148926,169
0.7019043,3.2043457,3.8452148,0.011962891,-0.036621094,-1.0200195,0.003662109,-0.6265869,0.51416016,170
0.5950928,3.1280518,0.015258789,0.012939453,-0.036376953,-1.0195312,0.003662109,-0.6265869,0.51416016,171
0.48828125,2.8381348,-0.10681152,0.012451172,-0.036132812,-1.0205078,0.003662109,-0.6265869,0.51416016,172
0.77819824,2.5024414,0.076293945,0.011962891,-0.036376953,-1.020752,0.002197266,-0.6265869,0.51086426,173
0.6866455,2.9296875,0.30517578,0.011474609,-0.036621094,-1.020752,0.002197266,-0.6265869,0.51086426,174
0.8544922,2.8533936,0.21362305,0.011474609,-0.037109375,-1.0209961,0.003662109,-0.62475586,0.5159912,175
0.74768066,3.2653809,0.19836426,0.012207031,-0.036865234,-1.0212402,0.003662109,-0.62475586,0.5159912,176
1.2054443,3.0975342,0.12207031,0.011230469,-0.036621094,-1.0209961,0.005859375,-0.6262207,0.51379395,177
0.61035156,3.3721924,3.8757324,0.011474609,-0.036132812,-1.020752,0.005859375,-0.6262207,0.51379395,178
0.39672852,3.7841797,0.16784668,0.01171875,-0.036132812,-1.0205078,0.005859375,-0.6262207,0.51379395,179
0.4272461,2.7618408,0.35095215,0.011474609,-0.036132812,-1.0202637,0.00402832,-0.62475586,0.5163574,180
0.47302246,3.326416,0.50354004,0.01171875,-0.036621094,-1.0205078,0.00402832,-0.62475586,0.5163574,181
0.6561279,2.7160645,0.2746582,0.011962891,-0.036376953,-1.0202637,0.003295898,-0.6265869,0.5163574,182
0.35095215,2.6855469,-0.15258789,0.011962891,-0.036132812,-1.0200195,0.003295898,-0.6265869,0.5163574,183
0.869751,2.9296875,-0.19836426,0.011962891,-0.035888672,-1.0200195,0.003295898,-0.6265869,0.5163574,184
0.4272461,3.2196045,0.22888184,0.01171875,-0.036376953,-1.0197754,0.005859375,-0.62475586,0.5123291,185
1.1444092,2.532959,0.30517578,0.012207031,-0.036621094,-1.0197754,0.005859375,-0.62475586,0.5123291,186
0.8239746,3.3569336,0.12207031,0.012695313,-0.036865234,-1.0202637,0.003295898,-0.623291,0.51379395,187
0.6713867,3.2653809,0.1373291,0.012451172,-0.036621094,-1.0205078,0.003295898,-0.623291,0.51379395,188
0.93078613,3.4484863,-0.076293945,0.012207031,-0.036132812,-1.0205078,0.003295898,-0.623291,0.51379395,189
0.8087158,2.9296875,0.36621094,0.011962891,-0.036376953,-1.0197754,0.00402832,-0.6254883,0.5119629,190
0.6713867,3.1433105,0.2593994,0.01171875,-0.036376953,-1.0205078,0.00402832,-0.6254883,0.5119629,191
0.76293945,2.7770996,0.015258789,0.011474609,-0.036132812,-1.0205078,0.008056641,-0.6229248,0.5163574,192
0.39672852,3.6468506,-0.045776367,0.011962891,-0.036132812,-1.0205078,0.008056641,-0.6229248,0.5163574,193
0.6561279,3.0822754,0.061035156,0.01171875,-0.036376953,-1.0205078,0.008056641,-0.6229248,0.5163574,194
0.79345703,3.3111572,0.18310547,0.011474609,-0.036376953,-1.020752,0.006591797,-0.6236572,0.51379395,195
0.44250488,3.3569336,0.32043457,0.012451172,-0.036621094,-1.0205078,0.006591797,-0.6236572,0.51379395,196
0.6713867,3.3569336,0,0.012451172,-0.036865234,-1.0197754,0.003662109,-0.62805176,0.51452637,197
0.64086914,3.326416,0.22888184,0.012207031,-0.036376953,-1.0202637,0.003662109,-0.62805176,0.51452637,198
0.61035156,3.0670166,0.076293945,0.01171875,-0.036865234,-1.0202637,0.003295898,-0.6291504,0.51708984,199
0.90026855,2.89917,0.289917,0.011962891,-0.036376953,-1.0200195,0.003295898,-0.6291504,0.51708984,200
0.36621094,2.9296875,0,0.012207031,-0.036376953,-1.0202637,0.003295898,-0.6291504,0.51708984,201
0.6866455,3.1280518,3.7841797,0.012207031,-0.036132812,-1.0202637,0.000366211,-0.6251221,0.5126953,202
1.0375977,3.1280518,0.19836426,0.012207031,-0.036376953,-1.0200195,0.000366211,-0.6251221,0.5126953,203
0.6713867,3.250122,0.16784668,0.01171875,-0.037109375,-1.0202637,0.003295898,-0.6295166,0.51342773,204
0.38146973,2.8533936,0.15258789,0.012207031,-0.037109375,-1.0197754,0.003295898,-0.6295166,0.51342773,205
0.44250488,3.2958984,0.076293945,0.011962891,-0.036865234,-1.0195312,0.003295898,-0.6295166,0.51342773,206
0.4119873,2.9449463,-0.10681152,0.01171875,-0.036865234,-1.0195312,0.003662109,-0.6265869,0.5123291,207
0.77819824,3.1280518,0.18310547,0.01171875,-0.036376953,-1.0197754,0.003662109,-0.6265869,0.5123291,208
0.48828125,2.8381348,0.10681152,0.011474609,-0.036132812,-1.0200195,0.000366211,-0.6287842,0.51379395,209
0.90026855,3.2806396,0.045776367,0.011962891,-0.036621094,-1.0200195,0.000366211,-0.6287842,0.51379395,210
0.5645752,3.2806396,-0.030517578,0.011962891,-0.036376953,-1.0205078,0.000366211,-0.6287842,0.51379395,211
0.5645752,2.822876,-0.10681152,0.01171875,-0.036376953,-1.0205078,0.00402832,-0.62768555,0.5126953,212
0.38146973,3.0975342,0.289917,0.012207031,-0.036621094,-1.0205078,0.00402832,-0.62768555,0.5126953,213
0.8392334,3.2196045,0.10681152,0.012451172,-0.036865234,-1.0200195,0.001098633,-0.6269531,0.5123291,214
0.44250488,2.9907227,0.19836426,0.011962891,-0.036376953,-1.0197754,0.001098633,-0.6269531,0.5123291,215
0,3.189087,0.33569336,0.012207031,-0.036376953,-1.0197754,0.001098633,-0.6269531,0.5123291,216
0.5340576,3.0212402,0.10681152,0.012207031,-0.036621094,-1.0202637,0.004394531,-0.6254883,0.5123291,217
0.35095215,3.036499,0.33569336,0.011474609,-0.036376953,-1.0202637,0.004394531,-0.6254883,0.5123291,218
0.38146973,3.2958984,0.21362305,0.011474609,-0.036376953,-1.0197754,0.006225586,-0.62475586,0.51086426,219
0.77819824,2.6855469,0.15258789,0.011474609,-0.036621094,-1.0200195,0.006225586,-0.62475586,0.51086426,220
0.7324219,3.2348633,3.8604736,0.01171875,-0.036376953,-1.0200195,0.006225586,-0.62768555,0.51086426,221
0.7324219,3.1585693,0.16784668,0.012207031,-0.036132812,-1.0205078,0.002563477,-0.62768555,0.51086426,222
0.77819824,2.8076172,0.39672852,0.012207031,-0.036376953,-1.0202637,0.002563477,-0.62768555,0.51086426,223
0.90026855,3.8909912,0.18310547,0.011962891,-0.036132812,-1.0202637,0.005126953,-0.62768555,0.5093994,224
0.5340576,3.0517578,0.5340576,0.011962891,-0.036621094,-1.0209961,0.005126953,-0.62768555,0.5093994,225
1.0375977,3.540039,0.15258789,0.011962891,-0.036621094,-1.0209961,0.002929688,-0.62438965,0.5152588,226
0.869751,2.9144287,-0.12207031,0.011474609,-0.036376953,-1.0200195,0.002929688,-0.62438965,0.5152588,227
0.5493164,2.9144287,0.18310547,0.01171875,-0.036132812,-1.0202637,0.002929688,-0.62438965,0.5152588,228
0.91552734,3.5858154,0.32043457,0.01171875,-0.036132812,-1.020752,0.001831055,-0.62402344,0.5130615,229
0.7171631,3.0059814,0.076293945,0.011962891,-0.036132812,-1.0202637,0.001831055,-0.62402344,0.5130615,230
0.76293945,3.2958984,0.19836426,0.011962891,-0.036376953,-1.020752,0.002929688,-0.6258545,0.5119629,231
0.48828125,3.0517578,0.30517578,0.01171875,-0.036621094,-1.0200195,0.002929688,-0.6258545,0.5119629,232
0.8392334,2.7923584,-0.045776367,0.01171875,-0.036376953,-1.0205078,0.002929688,-0.6258545,0.5119629,233
0.8239746,2.7313232,0.2593994,0.011962891,-0.036132812,-1.0212402,-0.001098633,-0.62731934,0.5152588,234
0.8087158,3.0517578,0.12207031,0.012207031,-0.036132812,-1.020752,-0.001098633,-0.62731934,0.5152588,235
0.6866455,2.960205,0.030517578,0.011962891,-0.03564453,-1.0202637,0.002563477,-0.6236572,0.51416016,236
1.2512207,3.0822754,0.21362305,0.01171875,-0.036132812,-1.0200195,0.002563477,-0.6236572,0.51416016,237
0.61035156,3.3874512,0,0.012207031,-0.036376953,-1.0200195,0.002563477,-0.6236572,0.51416016,238
0.8544922,3.3111572,-0.15258789,0.01171875,-0.036621094,-1.0195312,0.00402832,-0.62768555,0.51708984,239
1.1138916,3.0212402,0.15258789,0.01171875,-0.036376953,-1.0205078,0.00402832,-0.62768555,0.51708984,240
0.6713867,3.1280518,0.24414062,0.011962891,-0.036376953,-1.0202637,0.004760742,-0.6269531,0.51123047,241
0.32043457,2.7313232,0.045776367,0.01171875,-0.036376953,-1.0202637,0.004760742,-0.6269531,0.51123047,242
0.64086914,2.9907227,0.21362305,0.012207031,-0.035888672,-1.0202637,0.004394531,-0.6251221,0.5152588,243
0.5645752,3.250122,0.18310547,0.011962891,-0.036621094,-1.0202637,0.004394531,-0.6251221,0.5152588,244
0.8392334,3.2653809,0.045776367,0.01171875,-0.036865234,-1.0200195,0.004394531,-0.6251221,0.5152588,245
0.61035156,3.1738281,0.4119873,0.010742188,-0.037109375,-1.0197754,0.003662109,-0.6269531,0.51086426,246
0.88500977,3.0975342,0.2593994,0.010742188,-0.036865234,-1.0197754,0.003662109,-0.6269531,0.51086426,247
0.7019043,3.0212402,0.32043457,0.011474609,-0.036376953,-1.0200195,0.001831055,-0.6258545,0.5123291,248
0.5493164,3.036499,0.38146973,0.011474609,-0.035888672,-1.0202637,0.001831055,-0.6258545,0.5123291,249
0.64086914,3.1280518,0.45776367,0.011474609,-0.036376953,-1.020752,0.001831055,-0.6258545,0.5123291,250
0.44250488,3.3416748,0.1373291,0.012207031,-0.036376953,-1.0202637,0.006225586,-0.6236572,0.5152588,251
0.64086914,3.1585693,-0.21362305,0.012207031,-0.036621094,-1.0200195,0.006225586,-0.6236572,0.5152588,252
0.64086914,3.1280518,3.753662,0.011962891,-0.036621094,-1.0200195,-0.000732422,-0.6236572,0.51379395,253
0.9765625,3.0670166,0.24414062,0.01171875,-0.036621094,-1.0200195,-0.000732422,-0.6236572,0.51379395,254
0.88500977,2.960205,0.24414062,0.011962891,-0.036132812,-1.0202637,-0.000732422,-0.6236572,0.51379395,255
0.7019043,3.2958984,-0.16784668,0.011962891,-0.035888672,-1.0200195,0.002929688,-0.6269531,0.51013184,0
0.6866455,2.9296875,0.35095215,0.011962891,-0.03564453,-1.0195312,0.002929688,-0.6269531,0.51013184,1
0.5187988,3.036499,0.19836426,0.011962891,-0.036132812,-1.0200195,0.005859375,-0.62438965,0.51452637,2
0.6713867,3.112793,0.2746582,0.011962891,-0.036132812,-1.0202637,0.005859375,-0.62438965,0.51452637,3
0.5950928,3.1585693,0.076293945,0.011962891,-0.036376953,-1.0202637,0.005859375,-0.62438965,0.51452637,4
0.88500977,3.5095215,3.8909912,0.01171875,-0.036132812,-1.0202637,0.00402832,-0.623291,0.5148926,5
0.7324219,3.189087,0.2593994,0.01171875,-0.036132812,-1.020752,0.00402832,-0.623291,0.5148926,6
1.0681152,2.89917,0.35095215,0.01171875,-0.036376953,-1.020752,0.005859375,-0.62475586,0.5130615,7
1.0223389,3.540039,0.35095215,0.01171875,-0.036132812,-1.0205078,0.005859375,-0.62475586,0.5130615,8
0.61035156,3.0059814,0.15258789,0.01171875,-0.036865234,-1.0202637,0.005859375,-0.62475586,0.5130615,9
0.61035156,2.6550293,0.015258789,0.01171875,-0.036865234,-1.0195312,0.002563477,-0.623291,0.5159912,10
0.9460449,3.0670166,0.21362305,0.01171875,-0.036865234,-1.0197754,0.002563477,-0.623291,0.5159912,11
0.93078613,3.3569336,0.33569336,0.01171875,-0.036865234,-1.0195312,0.003295898,-0.623291,0.51086426,12
1.4648438,2.8686523,0.24414062,0.011474609,-0.036376953,-1.0200195,0.003295898,-0.623291,0.51086426,13
0.8087158,2.8533936,-0.015258789,0.012207031,-0.036621094,-1.020752,0.005859375,-0.6262207,0.5126953,14
0.45776367,2.822876,0.10681152,0.011962891,-0.035888672,-1.020752,0.005859375,-0.6262207,0.5126953,15
0.61035156,2.8076172,0.12207031,0.01171875,-0.036132812,-1.020752,0.005859375,-0.6262207,0.5126953,16
0.77819824,2.7313232,-0.091552734,0.011962891,-0.036621094,-1.020752,0.002563477,-0.6265869,0.5126953,17
0.32043457,3.1280518,0.15258789,0.01171875,-0.036376953,-1.0202637,0.002563477,-0.6265869,0.5126953,18
0.44250488,3.2958984,-0.045776367,0.011962891,-0.036621094,-1.0205078,0.002929688,-0.6254883,0.5119629,19
0.7019043,3.2806396,0.4119873,0.012451172,-0.036621094,-1.0205078,0.002929688,-0.6254883,0.5119629,20
0.88500977,2.7770996,0.2593994,0.011962891,-0.036376953,-1.020752,0.002929688,-0.6254883,0.5119629,21
0.6866455,2.5787354,0.5950928,0.011962891,-0.036376953,-1.0209961,0.004394531,-0.6265869,0.51379395,22
0.79345703,3.40271,0.076293945,0.012207031,-0.036621094,-1.0205078,0.004394531,-0.6265869,0.51379395,23
0.45776367,3.0822754,0.30517578,0.01171875,-0.036865234,-1.0202637,0.005493164,-0.6262207,0.51782227,24
0.88500977,3.250122,0.030517578,0.011474609,-0.036621094,-1.0200195,0.005493164,-0.6262207,0.51782227,25
0.88500977,2.7618408,0,0.011474609,-0.036621094,-1.0202637,0.005493164,-0.6262207,0.51782227,26
0.8392334,3.1585693,0.1373291,0.011230469,-0.036132812,-1.0200195,0.003295898,-0.6258545,0.51416016,27
0.90026855,2.9754639,0.12207031,0.011474609,-0.036621094,-1.0200195,0.003295898,-0.6258545,0.51416016,28
0.77819824,3.1585693,0.030517578,0.011962891,-0.036132812,-1.020752,0.002929688,-0.6236572,0.51708984,29
0.9765625,2.7770996,0.015258789,0.011962891,-0.036132812,-1.0209961,0.002929688,-0.6236572,0.51708984,30
0.869751,3.6315918,-0.091552734,0.011962891,-0.036132812,-1.0209961,0.002929688,-0.6236572,0.51708984,31
1.1749268,2.7313232,0.61035156,0.011962891,-0.036865234,-1.0205078,0.003662109,-0.6258545,0.51452637,32
0.79345703,3.112793,0.1373291,0.012207031,-0.036621094,-1.0200195,0.003662109,-0.6258545,0.51452637,33
0.62561035,2.9449463,0.1373291,0.012451172,-0.036865234,-1.0209961,-0.001831055,-0.6258545,0.5148926,34
1.0681152,3.0517578,0.35095215,0.012207031,-0.036376953,-1.0202637,-0.001831055,-0.6258545,0.5148926,35
0.7324219,3.0822754,0.4119873,0.011962891,-0.036376953,-1.0195312,-0.001831055,-0.6258545,0.51672363,36
0.579834,3.3416748,0.091552734,0.011962891,-0.036865234,-1.0192871,-0.000732422,-0.62768555,0.51672363,37
0.76293945,3.1433105,0.045776367,0.012451172,-0.036621094,-1.0192871,-0.000732422,-0.62768555,0.51672363,38
0.5950928,2.7313232,0.44250488,0.012451172,-0.036621094,-1.0205078,-0.001831055,-0.62731934,0.51672363,39
0.5493164,3.3416748,0.12207031,0.012451172,-0.036621094,-1.0202637,-0.001831055,-0.62731934,0.51672363,40
0.579834,3.0670166,-0.2746582,0.012207031,-0.035888672,-1.0202637,-0.001098633,-0.6262207,0.5159912,41
0.6713867,3.2348633,0.061035156,0.011962891,-0.036376953,-1.0195312,-0.001098633,-0.6262207,0.5159912,42
0.74768066,3.3111572,0.44250488,0.01171875,-0.036376953,-1.0202637,-0.001098633,-0.6262207,0.5159912,43
0.9765625,3.2958984,0.22888184,0.011474609,-0.036621094,-1.0202637,0.002197266,-0.6251221,0.5159912,44
1.0070801,3.0059814,0.2593994,0.01171875,-0.037109375,-1.0195312,0.002197266,-0.6251221,0.5159912,45
0.8392334,2.8839111,0.22888184,0.01171875,-0.036621094,-1.0197754,0.002563477,-0.6265869,0.51708984,46
0.5340576,2.9754639,0.16784668,0.011474609,-0.036376953,-1.0202637,0.002563477,-0.6265869,0.51708984,47
0.8392334,3.2806396,0.061035156,0.012451172,-0.035888672,-1.0200195,0.002563477,-0.6265869,0.51708984,48
0.5187988,3.0975342,0.15258789,0.012451172,-0.035888672,-1.0200195,-0.000366211,-0.62731934,0.51745605,49
0.5340576,3.2196045,0.47302246,0.012695313,-0.036132812,-1.0200195,-0.000366211,-0.62731934,0.51745605,50
0.47302246,3.2806396,0.12207031,0.012451172,-0.036376953,-1.0202637,0.000732422,-0.6265869,0.51416016,51
0.74768066,2.746582,0,0.011962891,-0.036621094,-1.0200195,0.000732422,-0.6265869,0.51416016,52
0.77819824,3.6621094,0.38146973,0.011474609,-0.036865234,-1.020752,0.000732422,-0.6265869,0.51416016,53
0.33569336,3.0517578,0.045776367,0.011230469,-0.036865234,-1.0205078,-0.003295898,-0.62475586,0.5159912,54
0.50354004,3.3874512,0.2746582,0.011474609,-0.036132812,-1.020752,-0.003295898,-0.62475586,0.5159912,55
0.7171631,3.112793,0.076293945,0.01171875,-0.036132812,-1.0202637,-0.002197266,-0.62768555,0.5148926,56
0.77819824,2.8839111,0.24414062,0.01171875,-0.036376953,-1.0202637,-0.002197266,-0.62768555,0.5148926,57
0.8087158,3.2043457,0.19836426,0.01171875,-0.036621094,-1.0202637,-0.002197266,-0.62768555,0.5159912,58
0.9460449,2.9144287,0.579834,0.01171875,-0.036621094,-1.0195312,-0.002197266,-0.62072754,0.5159912,59
1.1291504,2.7160645,0.16784668,0.011962891,-0.035888672,-1.0200195,-0.002197266,-0.62072754,0.5159912,60
0.9613037,3.250122,-0.1373291,0.01171875,-0.036376953,-1.0200195,-0.005493164,-0.62805176,0.51452637,61
0.44250488,3.0517578,0.32043457,0.01171875,-0.036376953,-1.0200195,-0.005493164,-0.62805176,0.51452637,62
0.61035156,3.3874512,0.39672852,0.01171875,-0.035888672,-1.0200195,-0.002197266,-0.6251221,0.51452637,63
0.6866455,3.4484863,0.44250488,0.012207031,-0.035888672,-1.0205078,-0.002197266,-0.6251221,0.51452637,64
0.5950928,2.9907227,0.289917,0.01171875,-0.036376953,-1.0202637,-0.002197266,-0.6251221,0.51452637,65
0.4272461,2.7923584,0.10681152,0.01171875,-0.036376953,-1.0202637,-0.000366211,-0.6258545,0.51708984,66
1.0375977,3.4484863,0.076293945,0.012207031,-0.036376953,-1.0202637,-0.000366211,-0.6258545,0.51708984,67
0.7019043,3.0059814,0.076293945,0.011962891,-0.036376953,-1.0205078,0.001098633,-0.6295166,0.5130615,68
0.74768066,3.326416,0.061035156,0.01171875,-0.036132812,-1.020752,0.001098633,-0.6295166,0.5130615,69
0.5645752,3.2806396,-0.091552734,0.012207031,-0.036376953,-1.020752,0.001098633,-0.6295166,0.5130615,70
0.5645752,3.3416748,0.289917,0.011962891,-0.036621094,-1.0205078,0.002197266,-0.6251221,0.51708984,71
0.5950928,3.7078857,-3.768921,0.01171875,-0.036621094,-1.020752,0.002197266,-0.6251221,0.51708984,72
0.91552734,2.8839111,0.35095215,0.01171875,-0.037109375,-1.0205078,0.003295898,-0.62438965,0.515625,73
0.74768066,2.9296875,0.289917,0.011962891,-0.037353516,-1.020752,0.003295898,-0.62438965,0.515625,74
0.9765625,3.0975342,0.15258789,0.011962891,-0.036865234,-1.0205078,0.003295898,-0.62438965,0.515625,75
0.77819824,3.0975342,0.12207031,0.01171875,-0.036376953,-1.0200195,0.001464844,-0.6269531,0.51708984,76
0.6866455,3.1738281,0.32043457,0.01171875,-0.036132812,-1.020752,0.001464844,-0.6269531,0.51708984,77
0.76293945,3.5552979,0.39672852,0.01171875,-0.036376953,-1.0205078,0.003662109,-0.62731934,0.51745605,78
0.48828125,2.8381348,0,0.011962891,-0.036621094,-1.0197754,0.003662109,-0.62731934,0.51745605,79
1.2359619,3.036499,0.4272461,0.011474609,-0.036621094,-1.0200195,0.003662109,-0.62768555,0.51782227,80
1.083374,2.960205,0.22888184,0.010986328,-0.036865234,-1.0197754,0.001098633,-0.62768555,0.51782227,81
0.74768066,2.3651123,0.36621094,0.011474609,-0.036865234,-1.0195312,0.001098633,-0.62768555,0.51782227,82
0.61035156,2.7618408,0.4119873,0.011230469,-0.036376953,-1.0200195,0.003295898,-0.6258545,0.5148926,83
0.76293945,3.2348633,0.18310547,0.011474609,-0.036132812,-1.0197754,0.003295898,-0.6258545,0.5148926,84
0.6713867,2.9144287,0.5493164,0.01171875,-0.036132812,-1.0195312,0.003295898,-0.6262207,0.5148926,85
1.0223389,3.036499,0.4272461,0.012207031,-0.036376953,-1.0192871,0.001464844,-0.6262207,0.5148926,86
1.0375977,3.3569336,0.289917,0.01171875,-0.036376953,-1.0195312,0.001464844,-0.6262207,0.5148926,87
0.6866455,3.2653809,0.061035156,0.01171875,-0.036376953,-1.0200195,0.001464844,-0.6295166,0.5126953,88
0.77819824,3.5705566,0.2746582,0.011474609,-0.036621094,-1.0202637,0.001464844,-0.6295166,0.5126953,89
0.8544922,2.6550293,0.18310547,0.011230469,-0.036376953,-1.0205078,-0.001098633,-0.6287842,0.5163574,90
0.45776367,2.7618408,-0.21362305,0.011962891,-0.036132812,-1.020752,-0.001098633,-0.6287842,0.5163574,91
0.76293945,3.189087,0.2746582,0.012207031,-0.036132812,-1.0205078,-0.001098633,-0.6287842,0.5163574,92
0.9918213,3.692627,0.32043457,0.01171875,-0.036621094,-1.0200195,0.005859375,-0.62841797,0.51708984,93
0.77819824,3.3111572,-0.1373291,0.012207031,-0.036865234,-1.020752,0.005859375,-0.62841797,0.51708984,94
0.35095215,3.250122,0.48828125,0.011962891,-0.036621094,-1.0202637,0.003662109,-0.6265869,0.51708984,95
0.6561279,3.5095215,0.36621094,0.011962891,-0.036132812,-1.0205078,0.003662109,-0.6265869,0.51708984,96
0.9918213,2.7618408,-0.030517578,0.01171875,-0.036621094,-1.0200195,0.003662109,-0.6265869,0.51708984,97
0.48828125,2.9907227,0.289917,0.012207031,-0.036621094,-1.0200195,-0.003662109,-0.6269531,0.515625,98
0.9918213,3.3721924,0.32043457,0.011962891,-0.036621094,-1.0202637,-0.003662109,-0.6269531,0.515625,99
0.7171631,3.326416,0.045776367,0.011962891,-0.036621094,-1.020752,-0.001464844,-0.6269531,0.5152588,100
0.8392334,3.0975342,-0.030517578,0.011962891,-0.036376953,-1.0205078,-0.001464844,-0.6269531,0.5152588,101
1.0681152,2.9296875,0.22888184,0.011962891,-0.036376953,-1.0212402,-0.001464844,-0.6269531,0.5152588,102
0.61035156,3.0517578,0.36621094,0.01171875,-0.036132812,-1.020752,-0.000366211,-0.6251221,0.51379395,103
0.88500977,3.0975342,0.5493164,0.011962891,-0.036132812,-1.0205078,-0.000366211,-0.6251221,0.51379395,104
0.88500977,3.326416,0.36621094,0.012207031,-0.03564453,-1.0202637,0.003295898,-0.6225586,0.5115967,105
0.62561035,3.1585693,0.076293945,0.01171875,-0.036132812,-1.0195312,0.003295898,-0.6225586,0.5115967,106
0.869751,3.036499,0.15258789,0.011474609,-0.036376953,-1.0195312,0.002563477,-0.6236572,0.51086426,107
1.1138916,3.112793,0.045776367,0.011230469,-0.036621094,-1.0200195,0.002563477,-0.6236572,0.51086426,108
0.62561035,3.2958984,0.2746582,0.01171875,-0.036621094,-1.0200195,0.002563477,-0.6236572,0.51086426,109
0.38146973,3.036499,0.2746582,0.01171875,-0.036376953,-1.0195312,0.00402832,-0.62438965,0.5123291,110
1.159668,2.9907227,0.1373291,0.011962891,-0.036132812,-1.0195312,0.00402832,-0.62438965,0.5123291,111
0.8392334,3.0822754,0.15258789,0.012207031,-0.036376953,-1.0197754,0.004760742,-0.6229248,0.51379395,112
0.77819824,3.1738281,-0.16784668,0.012207031,-0.036376953,-1.0202637,0.004760742,-0.6229248,0.51379395,113
0.39672852,3.0212402,0.045776367,0.01171875,-0.036865234,-1.0200195,0.004760742,-0.6229248,0.51379395,114
0.8544922,2.960205,-0.091552734,0.01171875,-0.036865234,-1.0202637,0.002197266,-0.6258545,0.5123291,115
0.8239746,3.326416,0.12207031,0.011962891,-0.037353516,-1.0200195,0.002197266,-0.6258545,0.5123291,116
1.0681152,3.250122,-0.076293945,0.011962891,-0.036865234,-1.020752,0.005493164,-0.6229248,0.5163574,117
0.77819824,3.189087,0.4272461,0.011474609,-0.036621094,-1.0209961,0.005493164,-0.6229248,0.5163574,118
0.8239746,3.0670166,0.015258789,0.011474609,-0.036621094,-1.0202637,0.005493164,-0.6229248,0.5163574,119
0.6713867,3.036499,0.19836426,0.011474609,-0.036865234,-1.0200195,0.00402832,-0.6254883,0.5163574,120
0.90026855,3.2043457,0.015258789,0.01171875,-0.036621094,-1.0195312,0.00402832,-0.6254883,0.5163574,121
0.579834,3.0975342,-0.091552734,0.011474609,-0.036621094,-1.0202637,0.004394531,-0.6254883,0.515625,122
0.8544922,2.9907227,-0.22888184,0.01171875,-0.036132812,-1.0200195,0.004394531,-0.6254883,0.515625,123
0.7324219,2.8686523,0.30517578,0.012207031,-0.036621094,-1.0202637,0.004394531,-0.6254883,0.515625,124
0.48828125,3.3874512,0.33569336,0.012207031,-0.036376953,-1.0200195,0.006591797,-0.6229248,0.51379395,125
0.8392334,3.6315918,0.091552734,0.01171875,-0.036376953,-1.0202637,0.006591797,-0.6229248,0.51379395,126
0.93078613,3.2043457,-0.091552734,0.011230469,-0.036132812,-1.0197754,0.002197266,-0.6254883,0.5119629,127
0.90026855,2.9144287,-0.030517578,0.010986328,-0.035888672,-1.0197754,0.002197266,-0.6254883,0.5119629,128
0.90026855,3.1280518,0.21362305,0.011230469,-0.036132812,-1.0197754,0.002197266,-0.6254883,0.5126953,129
1.449585,2.5634766,0.30517578,0.01171875,-0.037109375,-1.0200195,0.001098633,-0.62438965,0.5126953,130
0.91552734,3.2196045,0,0.011962891,-0.036621094,-1.0202637,0.001098633,-0.62438965,0.5126953,131
0.289917,2.7770996,0.1373291,0.011474609,-0.035888672,-1.0200195,-0.001098633,-0.6225586,0.5123291,132
0.35095215,2.7618408,0.48828125,0.01171875,-0.036376953,-1.0200195,-0.001098633,-0.6225586,0.5123291,133
0.5340576,2.8381348,3.7841797,0.01171875,-0.036132812,-1.0197754,0.001831055,-0.62475586,0.5159912,134
1.0223389,2.822876,0.12207031,0.011230469,-0.036621094,-1.0192871,0.001831055,-0.62475586,0.5159912,135
0.8392334,3.3721924,-0.10681152,0.011474609,-0.036376953,-1.0205078,0.001831055,-0.62475586,0.5159912,136
0.9918213,3.0212402,-0.18310547,0.011474609,-0.036376953,-1.0202637,0.003662109,-0.62438965,0.51416016,137
0.5950928,3.112793,0.15258789,0.012207031,-0.036621094,-1.0197754,0.003662109,-0.62438965,0.51416016,138
0.8544922,3.1433105,0.15258789,0.011962891,-0.036376953,-1.0202637,0.001464844,-0.62438965,0.5130615,139
0.77819824,3.189087,0.38146973,0.011962891,-0.036621094,-1.020752,0.001464844,-0.62438965,0.5130615,140
0.4272461,3.5552979,0.2593994,0.012451172,-0.036865234,-1.020752,0.001464844,-0.62438965,0.5130615,141
0.33569336,3.0517578,0.2593994,0.012207031,-0.037109375,-1.0200195,0.00402832,-0.62072754,0.51416016,142
0.4272461,3.036499,0.22888184,0.011962891,-0.036621094,-1.0205078,0.00402832,-0.62072754,0.51416016,143
1.4648438,2.7160645,0.24414062,0.012207031,-0.036865234,-1.0205078,0.002929688,-0.6236572,0.51708984,144
0.9765625,2.9907227,0.076293945,0.012695313,-0.036621094,-1.0202637,0.002929688,-0.6236572,0.51708984,145
0.47302246,2.6855469,0.2746582,0.012451172,-0.036376953,-1.0202637,0.002929688,-0.6236572,0.51708984,146
0.8392334,2.9449463,0.2593994,0.012451172,-0.035888672,-1.0202637,0.004760742,-0.6225586,0.5163574,147
1.159668,3.1738281,-0.091552734,0.012207031,-0.035888672,-1.0202637,0.004760742,-0.6225586,0.5163574,148
0.21362305,3.0822754,0.4272461,0.012207031,-0.037109375,-1.0200195,-0.000732422,-0.623291,0.51672363,149
0.90026855,3.0212402,0.33569336,0.012207031,-0.036865234,-1.0205078,-0.000732422,-0.623291,0.51672363,150
0.9460449,2.8686523,0.36621094,0.011962891,-0.037109375,-1.0212402,-0.000732422,-0.623291,0.51672363,151
0.38146973,3.2348633,3.7994385,0.011962891,-0.036376953,-1.0205078,0.003662109,-0.62438965,0.5093994,152
0.61035156,3.3569336,0.36621094,0.012207031,-0.035888672,-1.0205078,0.003662109,-0.62438965,0.5093994,153
0.5187988,3.40271,-0.10681152,0.011474609,-0.036132812,-1.0197754,0.007324219,-0.6251221,0.5130615,154
0.91552734,2.609253,0.19836426,0.01171875,-0.036621094,-1.0197754,0.007324219,-0.6251221,0.5130615,155
0.48828125,3.2653809,0.045776367,0.011962891,-0.036865234,-1.0200195,0.006225586,-0.62475586,0.5159912,156
1.1749268,2.9144287,0.10681152,0.01171875,-0.036865234,-1.0205078,0.006225586,-0.62475586,0.5159912,157
0.93078613,3.1738281,0.39672852,0.011474609,-0.036376953,-1.0209961,0.006225586,-0.62475586,0.5159912,158
0.9765625,3.2348633,0.45776367,0.01171875,-0.036376953,-1.0202637,0.001831055,-0.623291,0.51782227,159
0.9918213,3.0822754,0.15258789,0.011474609,-0.035888672,-1.0202637,0.001831055,-0.623291,0.51782227,160
0.8239746,2.822876,0.19836426,0.011962891,-0.035888672,-1.0205078,0.005859375,-0.6225586,0.5185547,161
0.4119873,3.112793,-0.19836426,0.011474609,-0.035888672,-1.0209961,0.005859375,-0.6225586,0.5185547,162
1.0223389,3.1585693,0.19836426,0.011230469,-0.035888672,-1.020752,0.005859375,-0.6225586,0.5185547,163
0.77819824,3.4942627,0.091552734,0.011230469,-0.036132812,-1.0205078,0.000732422,-0.62072754,0.51708984,164
0.5340576,2.746582,0.19836426,0.011230469,-0.036132812,-1.0202637,0.000732422,-0.62072754,0.51708984,165
1.1749268,3.112793,0.4119873,0.011962891,-0.036132812,-1.0205078,0.000732422,-0.6229248,0.51342773,166
0.91552734,2.380371,0.32043457,0.012451172,-0.036376953,-1.0202637,0.000732422,-0.6229248,0.51342773,167
0.24414062,3.3874512,0.10681152,0.011230469,-0.036132812,-1.0202637,0.000732422,-0.6229248,0.51342773,168
1.2359619,3.0212402,0.12207031,0.011474609,-0.037109375,-1.0197754,0.001831055,-0.6254883,0.5119629,169
0.9918213,3.250122,0.5187988,0.011474609,-0.036865234,-1.0202637,0.001831055,-0.6254883,0.5119629,170
0.76293945,2.89917,0.21362305,0.011230469,-0.036376953,-1.0202637,0.00402832,-0.623291,0.51342773,171
0.90026855,2.89917,0.10681152,0.011230469,-0.036376953,-1.0200195,0.00402832,-0.623291,0.51342773,172
0.24414062,2.6855469,0.030517578,0.011230469,-0.036621094,-1.0200195,0.00402832,-0.6229248,0.5126953,173
0.9765625,3.479004,-0.045776367,0.011474609,-0.036376953,-1.0202637,-0.001464844,-0.6229248,0.5126953,174
0.79345703,2.9296875,0.2593994,0.01171875,-0.036621094,-1.0205078,-0.001464844,-0.6229248,0.5126953,175
0.6866455,3.2043457,0.15258789,0.012207031,-0.036132812,-1.0209961,0.001831055,-0.62109375,0.51452637,176
0.869751,3.2653809,0.091552734,0.011474609,-0.036376953,-1.0205078,0.001831055,-0.62109375,0.51452637,177
0.579834,3.4179688,0.24414062,0.011474609,-0.036376953,-1.0197754,0.001831055,-0.62438965,0.52001953,178
0.8544922,3.0517578,0.2593994,0.01171875,-0.036376953,-1.0200195,0.000366211,-0.62438965,0.52001953,179
0.93078613,2.9754639,0.18310547,0.012207031,-0.036132812,-1.0202637,0.000366211,-0.62438965,0.52001953,180
0.64086914,2.9907227,0.030517578,0.012207031,-0.036376953,-1.020752,-0.00402832,-0.62402344,0.51342773,181
0.7324219,3.1280518,0.32043457,0.012207031,-0.036376953,-1.0202637,-0.00402832,-0.62402344,0.51342773,182
0.7171631,3.616333,0.091552734,0.01171875,-0.036621094,-1.0200195,0.000366211,-0.6229248,0.51782227,183
1.0070801,3.2958984,0.015258789,0.011474609,-0.036621094,-1.0195312,0.000366211,-0.6229248,0.51782227,184
0.47302246,3.1738281,0.12207031,0.011474609,-0.036376953,-1.0195312,0.000366211,-0.6229248,0.51782227,185
0.6561279,3.2196045,0.1373291,0.01171875,-0.036376953,-1.0202637,-0.004760742,-0.62072754,0.51452637,186
0.8087158,3.2196045,0.30517578,0.011474609,-0.036621094,-1.0205078,-0.004760742,-0.62072754,0.51452637,187
0.6713867,3.692627,0.076293945,0.012695313,-0.036621094,-1.020752,0.002197266,-0.6254883,0.51452637,188
0.9918213,2.7770996,0.22888184,0.011962891,-0.036376953,-1.020752,0.002197266,-0.6254883,0.51452637,189
0.6713867,3.250122,0.36621094,0.011962891,-0.037109375,-1.0205078,0.002197266,-0.6254883,0.51452637,190
1.159668,3.0059814,0.32043457,0.012207031,-0.036865234,-1.0197754,0.003295898,-0.6225586,0.515625,191
0.6866455,2.9296875,0.091552734,0.01171875,-0.036132812,-1.0197754,0.003295898,-0.6225586,0.515625,192
0.62561035,2.8533936,0.4119873,0.011962891,-0.036376953,-1.0202637,0.000732422,-0.6251221,0.5163574,193
0.62561035,2.89917,0.12207031,0.011962891,-0.036132812,-1.0205078,0.000732422,-0.6251221,0.5163574,194
0.50354004,3.0212402,0,0.01171875,-0.036132812,-1.0214844,0.000732422,-0.6251221,0.5163574,195
0.50354004,2.822876,0.030517578,0.011962891,-0.036376953,-1.0209961,-0.001831055,-0.62768555,0.5192871,196
0.6713867,3.2043457,0.4119873,0.011962891,-0.036621094,-1.0209961,-0.001831055,-0.62768555,0.5192871,197
0.6561279,2.9296875,0.24414062,0.011474609,-0.036376953,-1.0209961,-0.004760742,-0.6262207,0.51708984,198
0.79345703,3.1433105,0.50354004,0.011230469,-0.035888672,-1.0209961,-0.004760742,-0.6262207,0.51708984,199
0.8392334,2.9296875,0.15258789,0.01171875,-0.036132812,-1.0205078,-0.003295898,-0.6221924,0.51342773,200
0.61035156,3.40271,0.289917,0.011474609,-0.036621094,-1.0202637,-0.003295898,-0.6221924,0.51342773,201
0.22888184,2.7923584,0.4272461,0.011474609,-0.036376953,-1.0200195,-0.003295898,-0.6221924,0.51342773,202
1.1138916,3.1280518,0.48828125,0.011474609,-0.036621094,-1.0197754,-0.002929688,-0.6229248,0.5159912,203
1.0375977,3.250122,0.061035156,0.011474609,-0.036376953,-1.0205078,-0.002929688,-0.6229248,0.5159912,204
0.45776367,3.4179688,0.5187988,0.011230469,-0.036132812,-1.0212402,-0.003295898,-0.6251221,0.5152588,205
0.7171631,3.0975342,-0.16784668,0.010742188,-0.036132812,-1.0205078,-0.003295898,-0.6251221,0.5152588,206
0.79345703,2.9296875,0.45776367,0.011474609,-0.036132812,-1.0202637,-0.003295898,-0.6251221,0.5152588,207
0.44250488,3.3416748,3.692627,0.011474609,-0.036132812,-1.0209961,-0.006225586,-0.6251221,0.5159912,208
1.1444092,3.4179688,0.2746582,0.012207031,-0.035888672,-1.0209961,-0.006225586,-0.6251221,0.5159912,209
0.9765625,2.9296875,0.32043457,0.011962891,-0.036132812,-1.020752,-0.002197266,-0.6251221,0.51782227,212
0.8544922,3.4332275,0,0.01171875,-0.036132812,-1.0209961,0.002563477,-0.6262207,0.51708984,213
0.44250488,3.0059814,0.22888184,0.012207031,-0.03564453,-1.0212402,0.002563477,-0.6262207,0.51708984,214
0.579834,2.8839111,0.24414062,0.011962891,-0.036132812,-1.020752,-0.001831055,-0.6258545,0.51342773,215
0.4119873,3.40271,0.061035156,0.01171875,-0.036621094,-1.0202637,-0.001831055,-0.6258545,0.51342773,216
0.6713867,2.9754639,0.39672852,0.01171875,-0.036621094,-1.0202637,-0.001831055,-0.6258545,0.51342773,217
0.8087158,3.4179688,-0.015258789,0.01171875,-0.036621094,-1.0197754,0.002563477,-0.6265869,0.5192871,218
0.8239746,3.3569336,0.32043457,0.012207031,-0.036865234,-1.0200195,0.002563477,-0.6265869,0.5192871,219
0.6561279,2.9449463,0.24414062,0.012451172,-0.036132812,-1.0202637,0.004760742,-0.62475586,0.51782227,220
0.76293945,3.5858154,0.19836426,0.012207031,-0.035888672,-1.0200195,0.004760742,-0.62475586,0.51782227,221
0.93078613,3.1280518,-0.1373291,0.012451172,-0.03564453,-1.0202637,0.004760742,-0.62475586,0.51379395,222
0.90026855,3.2043457,-0.10681152,0.012451172,-0.03564453,-1.0202637,0.005859375,-0.6269531,0.51379395,223
0.6713867,3.250122,0.30517578,0.011962891,-0.036132812,-1.0202637,0.005859375,-0.6269531,0.51379395,224
0.8544922,3.1585693,-0.015258789,0.01171875,-0.036132812,-1.020752,0.003295898,-0.6254883,0.5181885,225
0.4272461,2.8686523,0,0.011962891,-0.036376953,-1.0200195,0.003295898,-0.6254883,0.5181885,226
0.77819824,3.0517578,3.8909912,0.01171875,-0.036132812,-1.0200195,0.003295898,-0.62768555,0.5189209,227
0.12207031,3.036499,0.30517578,0.011962891,-0.036376953,-1.0195312,0.003295898,-0.62768555,0.5189209,228
0.9765625,3.1280518,0.061035156,0.011962891,-0.036132812,-1.0205078,0.003295898,-0.62768555,0.5189209,229
0.62561035,2.9449463,-0.061035156,0.01171875,-0.036376953,-1.0200195,-0.000366211,-0.62475586,0.5189209,230
0.579834,3.3416748,0.289917,0.012207031,-0.036865234,-1.020752,-0.000366211,-0.62475586,0.5189209,231
0.579834,3.3416748,0.1373291,0.011962891,-0.037109375,-1.020752,0.001464844,-0.62841797,0.5163574,232
0.289917,3.1280518,0.10681152,0.011474609,-0.037109375,-1.0209961,0.001464844,-0.62841797,0.5163574,233
0.47302246,3.0670166,0.50354004,0.011230469,-0.03564453,-1.020752,0.001464844,-0.62841797,0.5163574,234
0.6561279,3.1433105,0.19836426,0.011474609,-0.036376953,-1.0205078,0.003662109,-0.6262207,0.5130615,235
0.2746582,3.2958984,-0.22888184,0.011230469,-0.035888672,-1.0205078,0.003662109,-0.6262207,0.5130615,236
0.4119873,3.189087,0.35095215,0.01171875,-0.036376953,-1.0205078,0.002563477,-0.6254883,0.5185547,237
0.7019043,2.89917,0.30517578,0.011474609,-0.036376953,-1.020752,0.002563477,-0.6254883,0.5185547,238
0.79345703,2.7008057,0.24414062,0.011962891,-0.036865234,-1.0202637,0.002563477,-0.6254883,0.5152588,239
1.159668,2.746582,0.2593994,0.011962891,-0.036132812,-1.020752,-0.004760742,-0.6269531,0.5152588,240
0.5187988,2.609253,0.24414062,0.01171875,-0.036132812,-1.0209961,-0.004760742,-0.6269531,0.5152588,241
0.76293945,2.822876,0.2593994,0.011474609,-0.036132812,-1.020752,-0.001831055,-0.6262207,0.51782227,242
1.2054443,2.9144287,0.36621094,0.011230469,-0.036132812,-1.0200195,-0.001831055,-0.6262207,0.51782227,243
0.61035156,3.2196045,0.36621094,0.010986328,-0.036132812,-1.0205078,-0.001831055,-0.6262207,0.51782227,244
0.48828125,2.8076172,0.076293945,0.01171875,-0.036621094,-1.0205078,0.004760742,-0.62438965,0.51672363,245
0.88500977,2.9754639,0.21362305,0.011474609,-0.037109375,-1.020752,0.004760742,-0.62438965,0.51672363,246
0.5950928,2.9907227,0.16784668,0.01171875,-0.036621094,-1.0205078,0.002929688,-0.62475586,0.5185547,247
0.8239746,3.189087,0.15258789,0.011474609,-0.036621094,-1.020752,0.002929688,-0.62475586,0.5185547,248
0.9918213,3.0212402,-0.015258789,0.01171875,-0.036132812,-1.0212402,0.00402832,-0.6254883,0.51782227,249
0.2746582,3.036499,0.015258789,0.012207031,-0.035888672,-1.020752,0.00402832,-0.6254883,0.51782227,250
0.5950928,3.036499,0.22888184,0.011230469,-0.036132812,-1.0212402,0.00402832,-0.6254883,0.51782227,251
0.62561035,3.479004,0.15258789,0.011230469,-0.036376953,-1.0205078,0.000732422,-0.62438965,0.5185547,252
0.6866455,3.0059814,-0.12207031,0.011474609,-0.036376953,-1.0205078,0.000732422,-0.62438965,0.5185547,253
0.7324219,3.3874512,0.47302246,0.011474609,-0.036376953,-1.0202637,0.003295898,-0.62402344,0.52111816,254
0.9765625,3.2196045,0.35095215,0.011230469,-0.03564453,-1.0200195,0.003295898,-0.62402344,0.52111816,255
0.61035156,3.2043457,0.091552734,0.011474609,-0.03540039,-1.0200195,0.003295898,-0.62402344,0.52111816,0
1.0223389,2.89917,0.45776367,0.011474609,-0.03540039,-1.020752,0.002929688,-0.6262207,0.5196533,1
0.39672852,2.9296875,0.5340576,0.01171875,-0.035888672,-1.0205078,0.002929688,-0.6262207,0.5196533,2
0.869751,3.1433105,0.1373291,0.01171875,-0.036132812,-1.0205078,0.002563477,-0.62475586,0.52001953,3
0.6713867,2.89917,0.10681152,0.011962891,-0.036621094,-1.0200195,0.002563477,-0.62475586,0.52001953,4
0.90026855,3.1585693,0.33569336,0.011962891,-0.036865234,-1.0205078,0.002563477,-0.62475586,0.52001953,5
0.76293945,2.6855469,0.045776367,0.012451172,-0.036621094,-1.0197754,0.002197266,-0.6254883,0.5185547,6
1.1444092,2.9754639,0.12207031,0.012451172,-0.036621094,-1.0197754,0.002197266,-0.6254883,0.5185547,7
0.93078613,2.8686523,0.12207031,0.012207031,-0.036132812,-1.0202637,-0.001464844,-0.6254883,0.5130615,8
0.5493164,2.6855469,0.33569336,0.012207031,-0.036621094,-1.0202637,-0.001464844,-0.6254883,0.5130615,9
0.77819824,3.4332275,0.1373291,0.012207031,-0.036376953,-1.020752,-0.09118652,-0.6258545,0.51416016,10
0.5187988,3.1280518,0.2746582,0.011962891,-0.036376953,-1.0195312,0.002563477,-0.6258545,0.51416016,11
0.74768066,2.9449463,-0.061035156,0.011962891,-0.036621094,-1.0200195,0.002563477,-0.6258545,0.51416016,12
0.79345703,3.5552979,0.4119873,0.01171875,-0.036621094,-1.0200195,0.002929688,-0.62768555,0.5159912,13
0.61035156,2.9144287,0.030517578,0.011962891,-0.036132812,-1.0202637,0.002929688,-0.62768555,0.5159912,14
0.5950928,2.4871826,0.12207031,0.012207031,-0.035888672,-1.0205078,0.002929688,-0.6269531,0.5163574,15
0.64086914,3.463745,0.16784668,0.012207031,-0.035888672,-1.0202637,0.003662109,-0.6269531,0.5163574,16
0.6561279,3.0517578,-0.076293945,0.012207031,-0.036132812,-1.0205078,0.003662109,-0.6269531,0.5163574,17
0.7019043,3.326416,0.35095215,0.012207031,-0.036132812,-1.0205078,-0.000732422,-0.62402344,0.51416016,18
0.91552734,2.9754639,0.38146973,0.012207031,-0.036132812,-1.0205078,-0.000732422,-0.62402344,0.51416016,19
1.1138916,2.8381348,0.2746582,0.012207031,-0.036865234,-1.020752,0.003295898,-0.6291504,0.51672363,20
0.5187988,3.0059814,0.30517578,0.012695313,-0.036865234,-1.020752,0.003295898,-0.6291504,0.51672363,21
0.5187988,2.746582,0.18310547,0.012207031,-0.035888672,-1.0205078,0.003295898,-0.6291504,0.51672363,22
1.1138916,3.2348633,0.289917,0.011962891,-0.036376953,-1.0205078,0.003662109,-0.6269531,0.515625,23
1.0070801,2.9144287,0.19836426,0.012207031,-0.036621094,-1.0205078,0.003662109,-0.6269531,0.515625,24
0.91552734,3.0975342,0.19836426,0.012207031,-0.036376953,-1.0200195,0.004394531,-0.6254883,0.5152588,25
0.6713867,2.9296875,0.091552734,0.011474609,-0.036376953,-1.0195312,0.004394531,-0.6254883,0.5152588,26
0.76293945,3.3874512,0.10681152,0.011962891,-0.036132812,-1.0197754,0.004394531,-0.6254883,0.5152588,27
0.62561035,3.3416748,0.289917,0.011962891,-0.036376953,-1.0197754,0.003295898,-0.6258545,0.5148926,28
0.61035156,3.0670166,0.19836426,0.011962891,-0.036132812,-1.0202637,0.003295898,-0.6258545,0.5148926,29
0.38146973,3.4484863,0.12207031,0.01171875,-0.036132812,-1.0209961,0.001831055,-0.62438965,0.5148926,30
0.8544922,3.036499,-0.076293945,0.011474609,-0.036376953,-1.0200195,0.001831055,-0.62438965,0.5148926,31
0.33569336,3.1585693,0.30517578,0.011474609,-0.036376953,-1.0202637,0.001831055,-0.62438965,0.5148926,32
0.869751,3.0059814,0.15258789,0.01171875,-0.036865234,-1.0202637,0.003295898,-0.62438965,0.5159912,33
0.5493164,2.9296875,0.38146973,0.011962891,-0.036376953,-1.0200195,0.003295898,-0.62438965,0.5159912,34
0.62561035,2.960205,0.4272461,0.01171875,-0.036376953,-1.0202637,0.001464844,-0.6254883,0.5148926,35
0.7019043,3.4332275,0.16784668,0.011962891,-0.035888672,-1.0202637,0.001464844,-0.6254883,0.5148926,36
1.1444092,3.1280518,0.32043457,0.011962891,-0.036621094,-1.0205078,0.004760742,-0.6236572,0.51708984,37
0.5493164,2.9296875,0.45776367,0.012451172,-0.036621094,-1.0197754,0.004760742,-0.6236572,0.51708984,38
0.7324219,3.0212402,0.5340576,0.01171875,-0.036621094,-1.0205078,0.004760742,-0.6236572,0.51708984,39
0.32043457,2.5787354,0.48828125,0.01171875,-0.037109375,-1.020752,0.003662109,-0.6258545,0.51672363,40
0.76293945,2.5482178,0.64086914,0.01171875,-0.036376953,-1.0209961,0.003662109,-0.6258545,0.51672363,41
0.869751,2.5634766,0.21362305,0.01171875,-0.036376953,-1.0205078,0.001831055,-0.62805176,0.5159912,42
1.0986328,2.960205,0.35095215,0.011962891,-0.035888672,-1.0205078,0.001831055,-0.62805176,0.5159912,43
1.0223389,2.7770996,0.045776367,0.012207031,-0.035888672,-1.0205078,0.001831055,-0.62805176,0.5159912,44
0.5340576,3.2653809,0.061035156,0.012207031,-0.035888672,-1.0205078,0.002197266,-0.62438965,0.515625,45
0.38146973,3.7231445,0.16784668,0.011474609,-0.036376953,-1.0205078,0.002197266,-0.62438965,0.515625,46
0.579834,3.1738281,0.18310547,0.01171875,-0.036621094,-1.0209961,0.002929688,-0.6291504,0.515625,47
0.64086914,3.4942627,0.18310547,0.01171875,-0.036376953,-1.0200195,0.002929688,-0.6291504,0.515625,48
0.9765625,3.2348633,0.061035156,0.012451172,-0.036132812,-1.020752,0.002929688,-0.6291504,0.515625,49
0.76293945,3.3416748,0.38146973,0.011962891,-0.036132812,-1.0209961,0.002197266,-0.6251221,0.515625,50
0.579834,3.4484863,0.39672852,0.01171875,-0.036132812,-1.020752,0.002197266,-0.6251221,0.515625,51
0.5493164,3.0517578,0.48828125,0.011474609,-0.037109375,-1.0202637,0.001831055,-0.62841797,0.51452637,52
0.93078613,3.036499,0.32043457,0.011474609,-0.036865234,-1.0200195,0.001831055,-0.62841797,0.51452637,53
0.9613037,3.1738281,3.8452148,0.011474609,-0.036621094,-1.0200195,0.001831055,-0.62841797,0.51452637,54
0.6713867,2.8381348,0.15258789,0.01171875,-0.036132812,-1.0202637,0.002929688,-0.6265869,0.51672363,55
0.7324219,2.8839111,0.2593994,0.011962891,-0.036132812,-1.020752,0.002929688,-0.6265869,0.51672363,56
1.3122559,3.189087,0.061035156,0.012451172,-0.036132812,-1.0200195,0.002929688,-0.6265869,0.51342773,57
0.76293945,3.4332275,0.1373291,0.012207031,-0.036132812,-1.0202637,0.002929688,-0.6265869,0.51342773,58
1.1901855,3.189087,0.24414062,0.012451172,-0.036132812,-1.020752,0.002929688,-0.6265869,0.515625,59
0.8239746,2.7770996,0.50354004,0.011962891,-0.036376953,-1.0200195,-0.000366211,-0.6265869,0.515625,60
0.79345703,3.2196045,0.1373291,0.011474609,-0.036132812,-1.0200195,-0.000366211,-0.6265869,0.515625,61
0.6866455,3.250122,0.015258789,0.011962891,-0.036132812,-1.0202637,0.004760742,-0.6262207,0.51416016,62
0.61035156,2.9754639,0.39672852,0.012451172,-0.035888672,-1.0205078,0.004760742,-0.6262207,0.51416016,63
0.74768066,3.0975342,0.2593994,0.012207031,-0.036376953,-1.0205078,0.006958008,-0.6258545,0.51342773,64
0.32043457,3.5552979,0.12207031,0.01171875,-0.036132812,-1.0202637,0.006958008,-0.6258545,0.51342773,65
0.62561035,3.112793,0.16784668,0.011962891,-0.036621094,-1.0205078,0.006958008,-0.6258545,0.51342773,66
0.88500977,3.0822754,0.2593994,0.012207031,-0.036621094,-1.0197754,0.005493164,-0.62731934,0.51452637,67
0.9613037,3.036499,0.32043457,0.011962891,-0.036376953,-1.0197754,0.005493164,-0.62731934,0.51452637,68
0.5340576,3.479004,-0.015258789,0.011962891,-0.036376953,-1.0205078,0.004394531,-0.62768555,0.5152588,69
0.77819824,3.326416,0.18310547,0.01171875,-0.036621094,-1.0205078,0.004394531,-0.62768555,0.5152588,70
1.0375977,3.0212402,0.10681152,0.011474609,-0.036621094,-1.0202637,0.004394531,-0.62768555,0.5152588,71
0.9765625,3.2958984,0.50354004,0.011230469,-0.036865234,-1.0205078,0.004760742,-0.62805176,0.51416016,73
0.5950928,2.5482178,0.5950928,0.011230469,-0.036621094,-1.0202637,0.003662109,-0.62475586,0.51452637,74
0.9460449,2.8076172,0.2593994,0.011474609,-0.036621094,-1.0205078,0.003662109,-0.62475586,0.51452637,75
0.8087158,2.9144287,0.35095215,0.011474609,-0.036132812,-1.0200195,0.003662109,-0.62475586,0.51452637,76
0.48828125,2.8839111,0.22888184,0.011962891,-0.03564453,-1.0202637,0.003662109,-0.6265869,0.51708984,77
0.869751,3.250122,0.19836426,0.011962891,-0.036132812,-1.0205078,0.003662109,-0.6265869,0.51708984,78
0.869751,3.2043457,0.61035156,0.012207031,-0.036621094,-1.0195312,0.004760742,-0.62841797,0.51342773,82
0.8087158,2.9907227,0.36621094,0.01171875,-0.036132812,-1.0195312,0.004760742,-0.62841797,0.51342773,83
0.5340576,3.112793,0.33569336,0.01171875,-0.036132812,-1.0195312,0.003295898,-0.6258545,0.5148926,84
0.5493164,3.2806396,0.16784668,0.011962891,-0.03564453,-1.0197754,0.003295898,-0.6258545,0.5148926,85
0.5493164,2.9144287,0.16784668,0.01171875,-0.036132812,-1.0202637,0.005126953,-0.6269531,0.5152588,86
0.8392334,3.7994385,0.35095215,0.011962891,-0.036621094,-1.0205078,0.005126953,-0.6269531,0.5152588,87
0.77819824,3.0822754,0.35095215,0.011962891,-0.036621094,-1.0197754,0.005126953,-0.6269531,0.5152588,88
0.90026855,3.2196045,0.44250488,0.011962891,-0.036621094,-1.0202637,-0.000366211,-0.6258545,0.51379395,89
0.32043457,2.5177002,0.45776367,0.01171875,-0.036376953,-1.0197754,-0.000366211,-0.6258545,0.51379395,90
1.0681152,2.9296875,0.5187988,0.01171875,-0.036376953,-1.0195312,0.002197266,-0.6236572,0.5152588,91
1.1138916,3.4484863,0.091552734,0.011962891,-0.036132812,-1.0197754,0.002197266,-0.6236572,0.5152588,92
1.0375977,2.9754639,0.091552734,0.012207031,-0.035888672,-1.0205078,0.002197266,-0.6236572,0.5152588,93
0.90026855,2.7313232,0.39672852,0.011962891,-0.036132812,-1.0200195,-0.002197266,-0.6251221,0.5126953,94
0.62561035,2.9296875,-0.21362305,0.011474609,-0.035888672,-1.0200195,-0.002197266,-0.6251221,0.5126953,95
0.7171631,3.1738281,0.5187988,0.011962891,-0.036132812,-1.0205078,0.000732422,-0.6236572,0.5148926,96
1.0528564,3.2806396,0.12207031,0.012207031,-0.036132812,-1.0202637,0.000732422,-0.6236572,0.5148926,97
0.2746582,3.2196045,0.061035156,0.011962891,-0.03564453,-1.0205078,0.000732422,-0.6236572,0.5148926,98
1.159668,2.8839111,0.7324219,0.011962891,-0.035888672,-1.0205078,-0.002929688,-0.62402344,0.51672363,99
0.5493164,2.6550293,0.38146973,0.011474609,-0.036132812,-1.0212402,-0.002929688,-0.62402344,0.51672363,100
0.8392334,2.9144287,0.19836426,0.01171875,-0.035888672,-1.0205078,0.00402832,-0.6269531,0.51708984,101
1.0528564,3.189087,0.22888184,0.01171875,-0.036376953,-1.0202637,0.00402832,-0.6269531,0.51708984,102
0.9460449,3.189087,0.16784668,0.011962891,-0.036376953,-1.0205078,0.00402832,-0.6258545,0.5159912,103
0.8087158,2.9907227,0.30517578,0.012207031,-0.036132812,-1.0202637,0.001098633,-0.6258545,0.5159912,104
0.61035156,3.0822754,0.33569336,0.012207031,-0.036132812,-1.0200195,0.001098633,-0.6258545,0.5159912,105
0.5645752,3.326416,0.21362305,0.012207031,-0.035888672,-1.0197754,-0.004394531,-0.62402344,0.515625,106
0.76293945,3.189087,0.44250488,0.01171875,-0.035888672,-1.0200195,-0.004394531,-0.62402344,0.515625,107
0.8239746,2.8686523,0.33569336,0.01171875,-0.036621094,-1.0200195,-0.000732422,-0.6265869,0.5152588,108
1.0375977,3.2958984,0.44250488,0.011474609,-0.036865234,-1.0205078,-0.000732422,-0.6265869,0.5152588,109
0.9765625,3.189087,0.38146973,0.01171875,-0.036865234,-1.0200195,-0.000732422,-0.6265869,0.5152588,110
0.8239746,2.8839111,0.18310547,0.012207031,-0.036621094,-1.0202637,-0.001464844,-0.6254883,0.51416016,111
0.6561279,3.479004,0.015258789,0.011962891,-0.036621094,-1.020752,-0.001464844,-0.6254883,0.51416016,112
0.6561279,3.1280518,0.15258789,0.012695313,-0.036621094,-1.0205078,-0.002197266,-0.6254883,0.5123291,113
0.76293945,2.670288,0.1373291,0.012451172,-0.036621094,-1.0202637,-0.002197266,-0.6254883,0.5123291,114
0.61035156,3.112793,0.30517578,0.012207031,-0.036865234,-1.0202637,-0.002197266,-0.6254883,0.5123291,115
0.88500977,2.5634766,0.19836426,0.01171875,-0.037109375,-1.0197754,0.002197266,-0.62475586,0.51782227,116
0.5187988,3.326416,0.50354004,0.011962891,-0.036132812,-1.0200195,0.002197266,-0.62475586,0.51782227,117
0.7171631,2.9754639,-0.10681152,0.011962891,-0.036376953,-1.0202637,0.004760742,-0.6236572,0.5130615,118
0.64086914,2.9754639,0.1373291,0.011962891,-0.036132812,-1.0205078,0.004760742,-0.6236572,0.5130615,119
1.0681152,3.6468506,0.091552734,0.011230469,-0.036621094,-1.0202637,0.004760742,-0.6236572,0.5130615,120
0.7171631,3.1738281,0.030517578,0.011474609,-0.036376953,-1.0200195,-0.003662109,-0.6236572,0.51708984,121
0.4119873,3.6010742,0.2746582,0.011474609,-0.036132812,-1.0200195,-0.003662109,-0.6236572,0.51708984,122
0.9918213,2.6855469,0.38146973,0.011962891,-0.036376953,-1.0202637,-0.004394531,-0.6251221,0.51708984,123
0.2746582,3.0670166,-0.19836426,0.011474609,-0.036132812,-1.0202637,-0.004394531,-0.6251221,0.51708984,124
0.74768066,2.8381348,0.10681152,0.011474609,-0.036376953,-1.0205078,-0.004394531,-0.6251221,0.51708984,125
0.77819824,3.2806396,-0.045776367,0.01171875,-0.035888672,-1.020752,-0.002563477,-0.6269531,0.51782227,126
0.9613037,3.5095215,0.091552734,0.01171875,-0.036132812,-1.0205078,-0.002563477,-0.6269531,0.51782227,127
0.869751,2.7008057,0.030517578,0.01171875,-0.036376953,-1.0202637,0.001831055,-0.6254883,0.51342773,130
0.579834,3.0059814,0.16784668,0.011230469,-0.036132812,-1.0202637,-0.001098633,-0.6258545,0.5185547,133
1.2054443,3.0822754,-0.061035156,0.01171875,-0.036132812,-1.0205078,-0.001098633,-0.6258545,0.5185547,134
0.6561279,3.4332275,0.35095215,0.011230469,-0.036621094,-1.0202637,-0.003295898,-0.62438965,0.5181885,136
1.1138916,3.3111572,0.2593994,0.01171875,-0.036132812,-1.0197754,-0.003295898,-0.62438965,0.5181885,137
0.8087158,3.2348633,0.33569336,0.01171875,-0.035888672,-1.0202637,0.002563477,-0.62731934,0.51452637,139
0.76293945,3.2653809,0.19836426,0.011230469,-0.03564453,-1.0202637,-0.002929688,-0.623291,0.5115967,140
0.4272461,3.0975342,0.076293945,0.011474609,-0.036132812,-1.0202637,-0.002929688,-0.623291,0.5115967,142
0.90026855,2.670288,-0.076293945,0.01171875,-0.035888672,-1.0195312,-0.000366211,-0.62768555,0.51745605,143
0.36621094,3.5247803,-0.12207031,0.012451172,-0.035888672,-1.0200195,0.001831055,-0.62731934,0.5152588,145
0.9765625,2.5177002,0.24414062,0.01171875,-0.035888672,-1.0200195,0.001831055,-0.62731934,0.5152588,146
0.6713867,2.960205,3.7841797,0.01171875,-0.036376953,-1.0205078,-0.002197266,-0.62402344,0.5097656,148
0.24414062,3.479004,0.030517578,0.01171875,-0.036132812,-1.0197754,-0.002197266,-0.62402344,0.5097656,149
0.77819824,2.89917,-0.091552734,0.011474609,-0.036132812,-1.0202637,-0.002563477,-0.6265869,0.508667,151
0.1373291,2.9449463,0.48828125,0.011962891,-0.035888672,-1.0197754,-0.002563477,-0.6265869,0.51342773,152
0.7324219,3.036499,-0.10681152,0.01171875,-0.036132812,-1.0200195,-0.000732422,-0.6254883,0.51342773,154
0.6561279,3.0517578,0.45776367,0.012207031,-0.036132812,-1.0202637,-0.002929688,-0.6254883,0.5126953,155
0.6713867,2.960205,0.091552734,0.012207031,-0.036621094,-1.0202637,-0.003295898,-0.6251221,0.5126953,157
0.5187988,3.1585693,0.12207031,0.012207031,-0.036621094,-1.0202637,-0.003295898,-0.6251221,0.5126953,158
0.50354004,2.960205,0.10681152,0.01171875,-0.03564453,-1.0202637,0.001098633,-0.6262207,0.5130615,160
0.35095215,3.326416,0.030517578,0.011474609,-0.03564453,-1.0205078,0.001098633,-0.6262207,0.5130615,161
0.5340576,3.0975342,0.30517578,0.011962891,-0.035888672,-1.0197754,-0.002563477,-0.62731934,0.5119629,163
0.7019043,2.8686523,0.21362305,0.011962891,-0.036376953,-1.0202637,-0.002563477,-0.62731934,0.5119629,164
0.5493164,3.1585693,0.24414062,0.011474609,-0.036621094,-1.020752,-0.000732422,-0.6221924,0.51416016,165
0.90026855,3.0517578,0.076293945,0.011474609,-0.036621094,-1.0202637,-0.000732422,-0.6221924,0.51416016,166
0.21362305,2.822876,0.2593994,0.011474609,-0.036132812,-1.0202637,0.003662109,-0.62402344,0.5090332,167
0.76293945,2.7618408,0.32043457,0.01171875,-0.036376953,-1.0197754,0.003662109,-0.62402344,0.5090332,168
0.2746582,3.326416,0,0.011474609,-0.036376953,-1.0202637,0.003662109,-0.62402344,0.5119629,169
1.1749268,3.2348633,0.2746582,0.011474609,-0.036132812,-1.0205078,0.001831055,-0.6251221,0.5119629,170
0.39672852,3.5247803,0.22888184,0.011474609,-0.035888672,-1.0209961,0.001831055,-0.6251221,0.5119629,171
0.5493164,3.3569336,0.36621094,0.012207031,-0.036132812,-1.0209961,-0.000366211,-0.62145996,0.5163574,172
0.6866455,3.036499,-0.12207031,0.012451172,-0.036376953,-1.0209961,-0.000366211,-0.62145996,0.5163574,173
0.869751,2.7923584,-3.8909912,0.012207031,-0.036132812,-1.0209961,-0.000366211,-0.62145996,0.51782227,174
0.47302246,3.6773682,0.35095215,0.012451172,-0.036132812,-1.0209961,-0.002197266,-0.6225586,0.51782227,175
0.5493164,3.1433105,0.18310547,0.012451172,-0.035888672,-1.0212402,-0.002197266,-0.6225586,0.51782227,176
0.2746582,3.5552979,0.32043457,0.011962891,-0.036376953,-1.0212402,-0.000732422,-0.62402344,0.5189209,177
0.48828125,3.1585693,0.21362305,0.01171875,-0.036376953,-1.0209961,-0.000732422,-0.62402344,0.5189209,178
1.159668,2.822876,0.30517578,0.01171875,-0.036621094,-1.020752,-0.000366211,-0.62438965,0.515625,179
0.9765625,3.0670166,-0.076293945,0.012207031,-0.037109375,-1.0202637,-0.000366211,-0.62438965,0.515625,180
0.36621094,2.7770996,0.38146973,0.011962891,-0.036376953,-1.0202637,-0.000366211,-0.62438965,0.515625,181
0.6713867,2.9296875,0.24414062,0.01171875,-0.036376953,-1.0197754,-0.005493164,-0.6251221,0.5148926,182
